Folder: webxdiviewer/xdidata/As (part 4)

File: As-K-Realgar.xdi
# XDI/1.0 BlueSky/1.10.0 BMM/2023-1.0-py310-tiled
# Beamline.name: BMM (06BM) -- Beamline for Materials Measurement (NIST)
# Beamline.xray_source: NSLS-II three-pole wiggler
# Beamline.collimation: paraboloid mirror, 5 nm Rh on 30 nm Pt
# Beamline.focusing: not in use
# Beamline.harmonic_rejection: flat mirror, Pt stripe, pitch = 7.0 mrad relative to beam
# Beamline.software: Bluesky 1.10.0, Ophyd 1.7.0, DataBroker 2.0.0b13, Python 3.10.8, 2023-1.0-py310-tiled
# Detector.I0: 10 cm N2
# Detector.I1: 25 cm N2
# Detector.I2: 25 cm N2
# Element.symbol: As
# Element.edge: K
# Element.reference: As
# Element.reference_material: As2O3
# Facility.name: NSLS-II
# Facility.energy: 3.0
# Facility.current: 400.8
# Facility.mode: top-off
# Facility.GUP: 301027
# Facility.SAF: 310583
# Facility.cycle: 2023-2
# Mono.name: Si(111)
# Mono.d_spacing: 3.13519
# Mono.encoder_resolution: 0.0000050 deg/ct
# Mono.angle_offset: 16.0754 deg
# Mono.scan_mode: pseudo channel cut
# Mono.scan_type: step
# Mono.direction: forward in energy
# Sample.name: AsS
# Sample.prep: powder in PEG pellet
# Sample.x: 115.008 mm
# Sample.y: 114.461 mm
# Sample.SDD_position: 170.000 mm
# Scan.experimenters: Bruce Ravel
# Scan.edge_energy: 11866.7
# Scan.start_time: 2023-07-10T16:45:17
# Scan.end_time: 2023-07-10T16:53:08
# Scan.transient_id: 90296
# Scan.uid: 20ff5c99-f1b9-46b5-9d06-99beffb16e1d
# Scan.plot_hint: ln(I0/It)  --  ln($5/$6)
# Column.1: energy eV
# Column.2: requested_energy eV
# Column.3: measurement_time seconds
# Column.4: xmu
# Column.5: I0 nA
# Column.6: It nA
# Column.7: Ir nA
# ///////////
# Powder + BN in plastic frame, courtesy of Sarah Nicolas
# -----------
# energy  requested_energy  measurement_time  xmu  I0  It  Ir
  11666.678  11666.700  0.500  0.020471  65.0065  63.6893  43.3561
  11696.748  11696.700  0.500  0.015430  64.6381  63.6484  43.4441
  11726.755  11726.700  0.500  0.010380  64.2405  63.5771  43.5076
  11756.732  11756.700  0.500  0.005536  63.7248  63.373  43.4731
  11786.744  11786.700  0.500  0.001036  63.4283  63.3627  43.5588
  11816.748  11816.700  0.500  -0.003775  63.0037  63.242  43.5234
  11838.704  11838.700  0.500  -0.006434  62.7272  63.1321  43.3656
  11844.678  11844.700  0.500  -0.006900  62.6585  63.0923  43.2483
  11850.682  11850.700  0.500  -0.006639  62.5664  62.9831  43.0081
  11856.680  11856.700  0.500  -0.005188  62.3187  62.6429  42.4139
  11857.555  11857.600  0.500  -0.004765  62.4273  62.7255  42.3829
  11858.467  11858.500  0.500  -0.004258  62.4279  62.6943  42.2601
  11859.361  11859.400  0.500  -0.003508  62.2192  62.4379  41.962
  11860.260  11860.300  0.500  -0.002486  62.0957  62.2503  41.6896
  11861.179  11861.200  0.500  -0.001046  62.1936  62.2587  41.52
  11862.097  11862.100  0.500  0.000409  62.2799  62.2544  41.2989
  11862.985  11863.000  0.500  0.002622  62.1859  62.0231  40.8905
  11863.885  11863.900  0.500  0.005495  62.2413  61.9002  40.4952
  11864.798  11864.800  0.500  0.009799  62.3272  61.7195  39.9675
  11865.680  11865.700  0.500  0.016066  62.3495  61.3558  39.2054
  11866.581  11866.600  0.500  0.026158  62.3358  60.7264  38.087
  11867.488  11867.500  0.500  0.043345  62.3246  59.6809  36.4701
  11868.401  11868.400  0.500  0.073813  62.3079  57.8744  34.0794
  11869.308  11869.300  0.500  0.122526  62.2881  55.1052  30.7212
  11870.210  11870.200  0.500  0.174981  62.2485  52.2559  26.7629
  11871.093  11871.100  0.500  0.198591  62.1072  50.9207  22.8729
  11871.976  11872.000  0.500  0.186984  62.1076  51.5156  19.7325
  11872.884  11872.900  0.500  0.161933  62.2096  52.9092  18.0809
  11873.810  11873.800  0.500  0.136088  62.2232  54.3063  18.4067
  11874.706  11874.700  0.500  0.114377  62.2206  55.4959  19.724
  11875.602  11875.600  0.500  0.103173  62.2033  56.1056  20.75
  11876.510  11876.500  0.500  0.103278  62.1804  56.079  21.3176
  11877.394  11877.400  0.500  0.108429  62.1634  55.7756  21.9234
  11878.285  11878.300  0.500  0.112602  62.1509  55.5322  22.7892
  11879.193  11879.200  0.500  0.113512  62.1392  55.4713  23.7115
  11880.102  11880.100  0.500  0.111613  62.1036  55.5448  24.3386
  11880.999  11881.000  0.500  0.108697  62.0996  55.7034  24.5418
  11881.902  11881.900  0.500  0.106165  62.0812  55.8281  24.2426
  11882.793  11882.800  0.500  0.104909  62.0612  55.8803  23.6628
  11883.678  11883.700  0.500  0.104488  62.0097  55.8575  23.2215
  11884.606  11884.600  0.500  0.103970  61.7109  55.6172  23.0771
  11885.498  11885.500  0.500  0.104032  61.35  55.2883  23.1592
  11886.408  11886.400  0.500  0.103638  61.4469  55.3975  23.4713
  11887.299  11887.300  0.500  0.102878  61.7774  55.7379  23.7774
  11888.216  11888.200  0.500  0.101857  61.9172  55.921  23.9595
  11889.101  11889.100  0.500  0.100985  61.924  55.976  24.0781
  11889.993  11890.000  0.500  0.100218  61.9184  56.0138  24.2487
  11890.885  11890.900  0.500  0.099577  61.9073  56.0397  24.4778
  11891.704  11891.700  0.500  0.098958  61.8979  56.066  24.6699
  11894.733  11894.710  0.500  0.096504  61.8633  56.1722  25.3019
  11897.923  11897.900  0.500  0.093718  61.8006  56.2719  25.8253
  11901.282  11901.260  0.500  0.091858  61.5091  56.1107  25.836
  11904.796  11904.780  0.500  0.091705  61.67  56.2661  26.1048
  11908.492  11908.480  0.500  0.091826  61.6754  56.2643  26.3198
  11912.375  11912.350  0.500  0.091728  61.6184  56.2177  26.3022
  11916.416  11916.400  0.500  0.090738  61.3393  56.0185  25.8067
  11920.639  11920.610  0.500  0.091302  61.497  56.1309  25.6266
  11925.000  11924.990  0.500  0.092447  61.4613  56.0341  25.3939
  11929.564  11929.550  0.500  0.094374  61.4036  55.8738  25.0055
  11934.292  11934.280  0.500  0.094902  61.31  55.7592  24.8169
  11939.178  11939.180  0.500  0.094267  61.4447  55.9171  24.8103
  11944.256  11944.250  0.500  0.091299  61.3949  56.0378  24.7906
  11949.505  11949.490  0.500  0.087810  61.3234  56.1682  24.8143
  11954.908  11954.910  0.500  0.084866  61.2407  56.2579  25.0331
  11960.485  11960.490  0.500  0.083484  61.1694  56.2701  25.1547
  11966.241  11966.250  0.500  0.083085  61.0828  56.2128  25.2637
  11972.153  11972.180  0.500  0.082900  61.0114  56.1575  25.3365
  11978.289  11978.280  0.500  0.082697  60.9171  56.0821  25.3985
  11984.525  11984.550  0.500  0.082355  60.8256  56.0171  25.4984
  11991.031  11990.990  0.500  0.082198  60.7148  55.9237  25.5735
  11997.581  11997.600  0.500  0.082141  60.6338  55.8524  25.5806
  12004.390  12004.390  0.500  0.081510  60.5318  55.7936  25.5123
  12011.351  12011.350  0.500  0.079957  60.4455  55.8006  25.4049
  12018.458  12018.470  0.500  0.077236  60.3666  55.8796  25.3473
  12025.769  12025.770  0.500  0.074395  60.2696  55.9485  25.3186
  12033.247  12033.250  0.500  0.072363  60.1701  55.9698  25.2942
  12040.911  12040.890  0.500  0.071202  60.053  55.9258  25.282
  12048.718  12048.700  0.500  0.071028  58.2352  54.2423  24.5871
  12056.686  12056.690  0.500  0.070655  59.8128  55.7326  25.3524
  12064.856  12064.850  0.500  0.070055  59.7207  55.6802  25.3951
  12073.189  12073.170  0.500  0.068663  59.6053  55.65  25.4034
  12081.661  12081.670  0.500  0.067024  59.4888  55.6323  25.4329
  12090.336  12090.350  0.500  0.065192  59.3605  55.6141  25.4798
  12099.195  12099.190  0.500  0.063544  59.2577  55.6093  25.5158
  12108.209  12108.200  0.500  0.062143  59.1498  55.5859  25.5504
  12117.402  12117.390  0.500  0.060619  59.0228  55.5512  25.5943
  12126.775  12126.750  0.500  0.059029  58.8855  55.5102  25.6147
  12136.298  12136.270  0.500  0.057094  58.7857  55.5234  25.6287
  12145.991  12145.970  0.500  0.055304  58.6473  55.492  25.5849
  12155.866  12155.850  0.500  0.053765  58.5127  55.4498  25.5254
  12165.900  12165.890  0.500  0.052411  58.3839  55.4027  25.5188
  12176.131  12176.100  0.500  0.051153  58.2374  55.3333  25.5519
  12186.522  12186.490  0.500  0.049709  58.1041  55.2864  25.6227
  12197.067  12197.050  0.500  0.047836  57.9608  55.2534  25.6739
  12207.792  12207.780  0.500  0.045926  57.8303  55.2344  25.7043
  12218.706  12218.680  0.500  0.043988  57.6963  55.2134  25.7049
  12229.783  12229.750  0.500  0.042244  57.5494  55.1689  25.6995
  12241.011  12240.990  0.500  0.040626  57.3499  55.0667  25.6931
  12252.417  12252.410  0.500  0.038794  57.2311  55.0534  25.7574
  12263.988  12263.990  0.500  0.036195  56.1699  54.1732  25.4264
  12275.739  12275.750  0.500  0.034739  56.9281  54.9845  25.8494
  12287.704  12287.680  0.500  0.032822  56.7347  54.9028  25.833
  12299.811  12299.780  0.500  0.031064  56.4163  54.6907  25.7345
  12312.061  12312.050  0.500  0.029301  56.4281  54.7987  25.79
  12324.488  12324.490  0.500  0.027765  56.147  54.6095  25.7375
  12337.126  12337.110  0.500  0.025818  56.0979  54.6681  25.8226
  12349.923  12349.890  0.500  0.023774  55.8011  54.4901  25.8103
  12362.867  12362.850  0.500  0.021474  55.7714  54.5866  25.9151
  12375.992  12375.980  0.500  0.019419  55.622  54.5523  25.944
  12389.299  12389.280  0.500  0.017207  55.4652  54.519  25.9543
  12402.782  12402.750  0.500  0.015252  55.2817  54.4449  25.9486
  12416.443  12416.400  0.500  0.013416  55.0887  54.3546  25.9519
  12430.216  12430.210  0.500  0.011464  54.9024  54.2766  25.9718
  12444.208  12444.200  0.500  0.009365  54.7666  54.2561  26.0264
  12458.388  12458.360  0.500  0.007285  54.587  54.1908  26.0497
  12472.702  12472.690  0.500  0.005249  54.4067  54.1219  26.0502
  12487.226  12487.190  0.500  0.003297  54.0016  53.8239  25.9325
  12501.873  12501.860  0.500  0.000984  54.0553  54.0022  26.048
  12516.719  12516.700  0.500  -0.001124  54.0554  54.1162  26.1465
  12531.758  12531.720  0.500  -0.003347  53.8691  54.0497  26.1715
  12546.930  12546.900  0.500  -0.005606  53.7044  54.0063  26.2114
  12562.297  12562.260  0.500  -0.007843  53.5202  53.9416  26.2386
  12577.840  12577.790  0.500  -0.009961  53.3213  53.8551  26.2438
  12593.567  12593.490  0.500  -0.012110  53.1513  53.7989  26.2603
  12609.383  12609.360  0.500  -0.014183  52.9759  53.7326  26.2657
  12625.469  12625.410  0.500  -0.016353  52.7779  53.6481  26.2753
  12641.651  12641.620  0.500  -0.018810  52.5471  53.5449  26.2837
  12658.037  12658.010  0.500  -0.021032  52.4117  53.5257  26.3285
  12674.605  12674.570  0.500  -0.023380  52.2138  53.4489  26.3419
  12691.337  12691.300  0.500  -0.025694  52.0139  53.3677  26.3443
  12708.233  12708.200  0.500  -0.027829  51.8123  53.2744  26.3431
  12719.600  12719.560  0.500  -0.029485  51.6761  53.2225  26.3456

File: As-K-TetramethylArsoniumIodide.xdi
# XDI/1.0 BlueSky/1.10.0 BMM/2023-1.0-py310-tiled
# Beamline.name: BMM (06BM) -- Beamline for Materials Measurement (NIST)
# Beamline.xray_source: NSLS-II three-pole wiggler
# Beamline.collimation: paraboloid mirror, 5 nm Rh on 30 nm Pt
# Beamline.focusing: not in use
# Beamline.harmonic_rejection: flat mirror, Pt stripe, pitch = 7.0 mrad relative to beam
# Beamline.software: Bluesky 1.10.0, Ophyd 1.7.0, DataBroker 2.0.0b13, Python 3.10.8, 2023-1.0-py310-tiled
# Detector.I0: 10 cm N2
# Detector.I1: 25 cm N2
# Detector.I2: 25 cm N2
# Element.symbol: As
# Element.edge: K
# Element.reference: As
# Element.reference_material: As2O3
# Facility.name: NSLS-II
# Facility.energy: 3.0
# Facility.current: 399.7
# Facility.mode: top-off
# Facility.GUP: 301027
# Facility.SAF: 310583
# Facility.cycle: 2023-2
# Mono.name: Si(111)
# Mono.d_spacing: 3.13519
# Mono.encoder_resolution: 0.0000050 deg/ct
# Mono.angle_offset: 16.0754 deg
# Mono.scan_mode: pseudo channel cut
# Mono.scan_type: step
# Mono.direction: forward in energy
# Sample.name: C4H12AsI
# Sample.prep: powder in PEG pellet
# Sample.x: 115.008 mm
# Sample.y: 114.461 mm
# Sample.SDD_position: 170.000 mm
# Scan.experimenters: Bruce Ravel
# Scan.edge_energy: 11866.7
# Scan.start_time: 2023-07-10T17:02:20
# Scan.end_time: 2023-07-10T17:10:10
# Scan.transient_id: 90306
# Scan.uid: f37bdedf-bfbd-4e35-8347-3f3cc45809e7
# Scan.plot_hint: ln(I0/It)  --  ln($5/$6)
# Column.1: energy eV
# Column.2: requested_energy eV
# Column.3: measurement_time seconds
# Column.4: xmu
# Column.5: I0 nA
# Column.6: It nA
# Column.7: Ir nA
# ///////////
# sample courtesy Evan Jahrman, NIST
# -----------
# energy  requested_energy  measurement_time  xmu  I0  It  Ir
  11666.701  11666.700  0.500  0.398612  64.9306  43.5848  29.5399
  11696.754  11696.700  0.500  0.391879  64.5588  43.628  29.6495
  11726.737  11726.700  0.500  0.384842  64.154  43.6605  29.7477
  11756.738  11756.700  0.500  0.378146  63.6389  43.601  29.782
  11786.732  11786.700  0.500  0.371831  63.3495  43.6776  29.8956
  11816.705  11816.700  0.500  0.365869  62.9132  43.6362  29.9036
  11838.668  11838.700  0.500  0.362780  62.6361  43.5784  29.8058
  11844.666  11844.700  0.500  0.362461  62.5627  43.5412  29.7164
  11850.664  11850.700  0.500  0.363073  62.4689  43.4494  29.5383
  11856.668  11856.700  0.500  0.365110  62.2233  43.1904  29.1041
  11857.561  11857.600  0.500  0.365791  62.326  43.2323  29.0687
  11858.455  11858.500  0.500  0.366208  62.3269  43.2149  28.9846
  11859.367  11859.400  0.500  0.366820  62.3284  43.1895  28.88
  11860.266  11860.300  0.500  0.368313  62.1884  43.0282  28.6665
  11861.148  11861.200  0.500  0.369962  62.2813  43.0215  28.5394
  11862.054  11862.100  0.500  0.371374  62.3831  43.031  28.3956
  11862.973  11863.000  0.500  0.373051  62.2803  42.8881  28.1193
  11863.879  11863.900  0.500  0.375931  62.3286  42.7979  27.8338
  11864.786  11864.800  0.500  0.379083  62.4283  42.7315  27.5009
  11865.699  11865.700  0.500  0.383273  62.4566  42.5721  27.0057
  11866.581  11866.600  0.500  0.388967  62.4325  42.3141  26.3371
  11867.470  11867.500  0.500  0.397141  62.4164  41.9587  25.4105
  11868.383  11868.400  0.500  0.409167  62.4013  41.4472  24.1129
  11869.290  11869.300  0.500  0.427753  62.3848  40.6732  22.2766
  11870.191  11870.200  0.500  0.459169  62.3344  39.3834  19.6622
  11871.105  11871.100  0.500  0.519589  62.1909  36.989  16.1259
  11872.013  11872.000  0.500  0.641938  62.2177  32.7434  12.1631
  11872.896  11872.900  0.500  0.837225  62.307  26.9733  8.858551
  11873.779  11873.800  0.500  1.025683  62.3303  22.3486  7.083903
  11874.688  11874.700  0.500  1.053858  62.3164  21.7229  7.200753
  11875.596  11875.600  0.500  0.939723  62.2955  24.3411  8.496241
  11876.510  11876.500  0.500  0.831357  62.2863  27.1231  9.795704
  11877.413  11877.400  0.500  0.779092  62.2666  28.5693  10.6959
  11878.303  11878.300  0.500  0.764618  62.2519  28.979  11.3485
  11879.212  11879.200  0.500  0.764243  62.2348  28.9819  11.8462
  11880.090  11880.100  0.500  0.764771  62.2226  28.9609  12.17
  11880.999  11881.000  0.500  0.767590  62.2026  28.8701  12.2452
  11881.908  11881.900  0.500  0.779147  62.1851  28.5303  11.952
  11882.799  11882.800  0.500  0.797440  62.16  28.0019  11.4214
  11883.709  11883.700  0.500  0.811820  62.1085  27.5792  10.9901
  11884.588  11884.600  0.500  0.811227  61.8257  27.4699  10.8917
  11885.485  11885.500  0.500  0.800468  61.449  27.5979  11.042
  11886.389  11886.400  0.500  0.786749  61.5437  28.0222  11.356
  11887.293  11887.300  0.500  0.773079  61.8825  28.5643  11.6779
  11888.209  11888.200  0.500  0.759172  62.0125  29.0252  11.9259
  11889.101  11889.100  0.500  0.746712  62.0225  29.3938  12.1306
  11890.006  11890.000  0.500  0.735536  62.0202  29.7231  12.3516
  11890.898  11890.900  0.500  0.725249  62.003  30.0221  12.5957
  11891.679  11891.700  0.500  0.717235  61.9961  30.2603  12.7993
  11894.726  11894.710  0.500  0.689956  61.9515  31.0748  13.4813
  11897.905  11897.900  0.500  0.668533  61.8947  31.7186  14.0675
  11901.288  11901.260  0.500  0.647337  61.6078  32.2479  14.352
  11904.796  11904.780  0.500  0.641012  61.7648  32.5352  14.595
  11908.511  11908.480  0.500  0.643595  61.765  32.4513  14.6825
  11912.351  11912.350  0.500  0.647721  61.7169  32.2925  14.6161
  11916.428  11916.400  0.500  0.650834  61.4325  32.0439  14.2655
  11920.626  11920.610  0.500  0.666014  61.6028  31.6486  13.9473
  11924.988  11924.990  0.500  0.681278  61.5663  31.1507  13.6194
  11929.564  11929.550  0.500  0.687414  61.4952  30.9244  13.3351
  11934.292  11934.280  0.500  0.688662  61.1991  30.7371  13.1675
  11939.191  11939.180  0.500  0.690069  61.3392  30.7642  13.1368
  11944.268  11944.250  0.500  0.689257  61.2832  30.761  13.0995
  11949.493  11949.490  0.500  0.685493  61.2157  30.843  13.117
  11954.902  11954.910  0.500  0.678954  61.1376  31.0058  13.2951
  11960.503  11960.490  0.500  0.671176  61.0551  31.2057  13.45
  11966.260  11966.250  0.500  0.664345  60.9728  31.3773  13.6011
  11972.190  11972.180  0.500  0.659360  60.8923  31.4924  13.7063
  11978.245  11978.280  0.500  0.656763  60.7992  31.526  13.7751
  11984.519  11984.550  0.500  0.655622  60.7171  31.5194  13.8448
  11990.949  11990.990  0.500  0.655254  60.611  31.4759  13.8945
  11997.650  11997.600  0.500  0.655587  60.5089  31.4124  13.8872
  12004.396  12004.390  0.500  0.656281  60.4253  31.3473  13.8306
  12011.357  12011.350  0.500  0.656807  60.3396  31.2863  13.7455
  12018.458  12018.470  0.500  0.656341  60.3971  31.3308  13.7117
  12025.788  12025.770  0.500  0.655504  60.2965  31.3048  13.6685
  12033.241  12033.250  0.500  0.654188  60.2036  31.2977  13.6462
  12040.905  12040.890  0.500  0.652468  60.0832  31.2888  13.6469
  12048.711  12048.700  0.500  0.650175  58.2646  30.4114  13.3034
  12056.686  12056.690  0.500  0.646611  59.8475  31.3492  13.7637
  12064.875  12064.850  0.500  0.642700  59.746  31.4187  13.8319
  12073.176  12073.170  0.500  0.638683  59.6348  31.4864  13.8722
  12081.667  12081.670  0.500  0.635843  59.5221  31.5163  13.9108
  12090.368  12090.350  0.500  0.633474  59.3885  31.5201  13.948
  12099.195  12099.190  0.500  0.631854  59.2921  31.52  13.9694
  12108.209  12108.200  0.500  0.630594  59.1733  31.4965  13.9827
  12117.402  12117.390  0.500  0.629431  59.0553  31.4703  14.0081
  12126.762  12126.750  0.500  0.627944  58.9155  31.4425  14.0197
  12136.273  12136.270  0.500  0.625954  58.7991  31.4429  14.0244
  12145.959  12145.970  0.500  0.623897  58.6749  31.4411  14.0062
  12155.841  12155.850  0.500  0.621197  58.5318  31.4492  13.9875
  12165.893  12165.890  0.500  0.618033  58.4021  31.4789  14.0078
  12176.105  12176.100  0.500  0.614770  58.2631  31.5067  14.0563
  12186.502  12186.490  0.500  0.611321  58.1154  31.5353  14.1221
  12197.086  12197.050  0.500  0.608240  57.9848  31.5616  14.1801
  12207.792  12207.780  0.500  0.605060  57.8479  31.5874  14.2142
  12218.693  12218.680  0.500  0.602269  57.7092  31.5997  14.2265
  12229.764  12229.750  0.500  0.599496  57.5649  31.6082  14.2362
  12241.031  12240.990  0.500  0.597047  57.371  31.579  14.2513
  12252.449  12252.410  0.500  0.594537  57.2569  31.5954  14.301
  12264.021  12263.990  0.500  0.589882  56.1914  31.1521  14.1451
  12275.765  12275.750  0.500  0.589257  56.9522  31.5937  14.3725
  12287.671  12287.680  0.500  0.586222  56.7535  31.5791  14.3799
  12299.791  12299.780  0.500  0.583115  56.4314  31.4976  14.3452
  12312.094  12312.050  0.500  0.579674  56.443  31.6126  14.4011
  12324.507  12324.490  0.500  0.576663  56.1628  31.5506  14.3893
  12337.119  12337.110  0.500  0.573035  56.1112  31.6362  14.466
  12349.896  12349.890  0.500  0.569513  55.8157  31.5806  14.4843
  12362.853  12362.850  0.500  0.566272  55.7844  31.6653  14.5611
  12376.025  12375.980  0.500  0.562882  55.6257  31.6825  14.5955
  12389.305  12389.280  0.500  0.559791  55.4721  31.6928  14.6164
  12402.749  12402.750  0.500  0.556719  55.2929  31.6876  14.6314
  12416.416  12416.400  0.500  0.553613  55.0954  31.6726  14.6531
  12430.236  12430.210  0.500  0.550479  54.9029  31.661  14.6838
  12444.242  12444.200  0.500  0.547142  54.774  31.6923  14.7361
  12458.361  12458.360  0.500  0.543835  54.5921  31.6917  14.7702
  12472.709  12472.690  0.500  0.540416  54.4093  31.6937  14.7919
  12487.219  12487.190  0.500  0.537462  53.9974  31.5469  14.7391
  12501.894  12501.860  0.500  0.533179  54.0504  31.7134  14.8354
  12516.712  12516.700  0.500  0.529702  53.8618  31.7127  14.8638
  12531.744  12531.720  0.500  0.526056  53.6695  31.7149  14.8983
  12546.930  12546.900  0.500  0.522370  53.4941  31.728  14.9429
  12562.297  12562.260  0.500  0.518928  53.302  31.7231  14.9744
  12577.833  12577.790  0.500  0.515475  53.0883  31.7053  14.9959
  12593.526  12593.490  0.500  0.511943  52.9151  31.7136  15.0269
  12609.404  12609.360  0.500  0.508500  52.7129  31.7014  15.046
  12625.469  12625.410  0.500  0.505040  52.5077  31.6874  15.071
  12641.658  12641.620  0.500  0.501220  52.2764  31.6686  15.0965
  12658.051  12658.010  0.500  0.497724  52.1318  31.6916  15.146
  12674.633  12674.570  0.500  0.493988  51.9265  31.6849  15.1722
  12691.323  12691.300  0.500  0.490240  51.7242  31.68  15.1973
  12708.226  12708.200  0.500  0.486354  51.5102  31.6718  15.2193
  12719.593  12719.560  0.500  0.483852  51.3747  31.6676  15.2355