Folder: webxdiviewer/xdidata/As (part 3)

File: As-K-Orpiment.xdi
# XDI/1.0 BlueSky/1.5.3
# Beamline.name: 6BM
# Beamline.xray_source: NSLS-II three-pole wiggler
# Beamline.collimation: paraboloid mirror, 5 nm Rh on 30 nm Pt
# Beamline.focusing: not in use
# Beamline.harmonic_rejection: flat mirror, Pt stripe, pitch = 7.0 mrad relative to beam
# Detector.i0: 10 cm N2
# Detector.i1: 25 cm N2
# Detector.i2: 25 cm N2
# Element.symbol: As
# Element.edge: K
# Facility.name: NSLS-II
# Facility.energy: 3.0
# Facility.current: 400.0
# Facility.mode: top-off
# Facility.gup: 301027
# Facility.saf: 304793
# Mono.name: Si(111)
# Mono.d_spacing: 3.13532
# Mono.encoder_resolution: 0.0000050 deg/ct
# Mono.angle_offset: 16.0581 deg
# Mono.scan_mode: pseudo channel cut
# Mono.scan_type: step
# Mono.direction: forward in energy
# Sample.name: As2S3
# Sample.prep: Powder in polyethylene glycol pellet
# Sample.x_position: -54.942 mm
# Sample.y_position: 110.034 mm
# Sample.wheel_position: -150.484 mm
# Scan.experimenters: Bruce Ravel
# Scan.edge_energy: 11867.0
# Scan.start_time: 2019-10-19T09:48:11
# Scan.end_time: 2019-10-19T10:23:41
# Scan.transient_id: 15434
# Scan.uid: 8a00cd32-dea6-44c2-8355-135f13b4f384
# Scan.plot_hint: ln(I0/It)  --  ln($5/$6)
# Scan.sequence: merge of 3 scans
# Column.1: energy eV
# Column.2: requested_energy eV
# Column.3: measurement_time seconds
# Column.4: mutrans
# Column.5: i0
# Column.6: itrans
# Column.7: irefer
# /////
#  prepped by Sarah, 1/2 degree away from previous run for better alignment
# -----
# energy   requested_energy   measurement_time   mutrans   i0   itrans   irefer
11667 11667 1.000000 -0.291505 91.0434 121.856 80.711
11697.1 11697 1.000000 -0.294270 90.2379 121.113 80.4507
11727 11727 1.000000 -0.296900 89.2763 120.137 80.0289
11757 11757 1.000000 -0.299573 88.3274 119.179 79.5902
11787 11787 1.000000 -0.302162 87.4167 118.256 79.1358
11817 11817 1.000000 -0.304419 86.4432 117.203 78.485
11839 11839 1.000000 -0.305550 85.7301 116.368 77.5949
11845 11845 1.000000 -0.305394 85.3626 115.851 76.9477
11851 11851 1.000000 -0.304695 85.3037 115.69 76.2432
11857 11857 1.000000 -0.301986 84.7888 114.681 74.1529
11857.9 11857.9 1.000000 -0.301110 84.5851 114.305 73.5342
11858.8 11858.8 1.000000 -0.300083 84.6435 114.267 73.0532
11859.7 11859.7 1.000000 -0.298720 84.8826 114.43 72.5912
11860.6 11860.6 1.000000 -0.296775 84.9204 114.262 71.7962
11861.5 11861.5 1.000000 -0.294139 85.0314 114.109 70.796
11862.4 11862.4 1.000000 -0.290348 84.992 113.629 69.3462
11863.3 11863.3 1.000000 -0.284384 84.9036 112.834 67.3039
11864.2 11864.2 1.000000 -0.275059 84.9918 111.917 64.7203
11865.1 11865.1 1.000000 -0.258371 84.931 109.97 60.7541
11866 11866 1.000000 -0.226831 84.8211 106.384 54.928
11866.9 11866.9 1.000000 -0.166012 84.7474 100.083 46.4229
11867.8 11867.8 1.000000 -0.084443 84.6409 92.1015 35.7353
11868.7 11868.7 1.000000 -0.043042 84.4575 88.1742 26.2425
11869.6 11869.6 1.000000 -0.071285 84.5457 90.7916 21.1787
11870.5 11870.5 1.000000 -0.118263 84.7113 95.3753 20.7152
11871.4 11871.4 1.000000 -0.158862 84.6736 99.2522 23.076
11872.3 11872.3 1.000000 -0.189544 84.5709 102.235 26.1058
11873.2 11873.2 1.000000 -0.205466 84.6197 103.919 28.2968
11874.1 11874.1 1.000000 -0.205254 84.5101 103.774 29.7938
11875 11875 1.000000 -0.196970 84.4588 102.859 31.4403
11875.9 11875.9 1.000000 -0.189511 84.4166 102.028 33.2336
11876.8 11876.8 1.000000 -0.185921 84.3966 101.64 34.697
11877.7 11877.7 1.000000 -0.186141 84.2605 101.5 35.349
11878.6 11878.6 1.000000 -0.188491 84.297 101.787 35.074
11879.5 11879.5 1.000000 -0.191356 84.1813 101.932 33.7737
11880.4 11880.4 1.000000 -0.193999 84.0677 102.063 32.3956
11881.3 11881.3 1.000000 -0.195759 83.6446 101.73 31.7352
11882.2 11882.2 1.000000 -0.196746 83.2382 101.336 31.9163
11883.1 11883.1 1.000000 -0.197193 83.5182 101.723 32.6975
11884 11884 1.000000 -0.197476 83.9498 102.278 33.396
11884.9 11884.9 1.000000 -0.197833 84.1097 102.51 33.7771
11885.8 11885.8 1.000000 -0.198246 84.1129 102.556 34.0105
11886.7 11886.7 1.000000 -0.198790 84.1728 102.684 34.3432
11887.6 11887.6 1.000000 -0.199547 84.1303 102.709 34.8287
11888.5 11888.5 1.000000 -0.200363 84.2475 102.936 35.4414
11889.4 11889.4 1.000000 -0.201427 84.1821 102.967 35.8255
11890.3 11890.3 1.000000 -0.202371 84.0708 102.929 36.0991
11891.2 11891.2 1.000000 -0.203341 84.0607 103.017 36.5758
11892.1 11892.1 1.000000 -0.204180 84.0563 103.097 37.2515
11893 11893 1.000000 -0.205055 83.8835 102.974 37.7693
11893.9 11893.9 1.000000 -0.205828 83.9302 103.111 38.1251
11894.8 11894.8 1.000000 -0.206685 83.8988 103.161 38.2189
11895.7 11895.7 1.000000 -0.207451 83.8842 103.221 38.2321
11896.6 11896.6 1.000000 -0.208274 83.8022 103.207 38.2394
11898.1 11898.1 1.000000 -0.209631 83.7266 103.254 38.3463
11901.5 11901.4 1.000000 -0.211988 82.7976 102.349 38.3319
11905 11905 1.000000 -0.212754 83.4464 103.23 39.1328
11908.6 11908.6 1.000000 -0.211776 83.3591 103.021 39.2006
11912.5 11912.5 1.000000 -0.208138 83.1019 102.33 38.0884
11916.6 11916.5 1.000000 -0.204128 82.9147 101.69 37.1644
11920.8 11920.8 1.000000 -0.201932 82.8812 101.427 36.7613
11925.2 11925.1 1.000000 -0.201126 82.8175 101.267 35.9856
11929.7 11929.7 1.000000 -0.201293 82.7235 101.169 35.5078
11934.4 11934.4 1.000000 -0.202633 82.3543 100.852 35.1393
11939.3 11939.3 1.000000 -0.205113 82.4574 101.23 35.2241
11944.4 11944.4 1.000000 -0.208156 82.3905 101.456 35.116
11949.6 11949.6 1.000000 -0.211097 82.2569 101.59 35.4142
11955 11955 1.000000 -0.213108 82.1798 101.699 35.8414
11960.6 11960.6 1.000000 -0.213929 81.8184 101.335 35.9825
11966.3 11966.3 1.000000 -0.213605 81.7385 101.203 36.1712
11972.3 11972.3 1.000000 -0.212471 81.7091 101.052 36.3275
11978.4 11978.4 1.000000 -0.211288 81.513 100.69 36.3989
11984.6 11984.6 1.000000 -0.210329 81.4395 100.503 36.6394
11991 11991 1.000000 -0.209546 81.2638 100.208 36.6781
11997.7 11997.7 1.000000 -0.209785 81.1405 100.08 36.6408
12004.5 12004.4 1.000000 -0.211677 80.8697 99.9348 36.392
12011.4 12011.4 1.000000 -0.214223 80.7293 100.016 36.1529
12018.5 12018.5 1.000000 -0.216636 80.3953 99.8417 35.9264
12025.8 12025.8 1.000000 -0.218449 80.1282 99.6906 35.7631
12033.3 12033.3 1.000000 -0.219290 79.867 99.4498 35.6183
12040.9 12040.9 1.000000 -0.219413 79.6565 99.1998 35.6122
12048.7 12048.7 1.000000 -0.219335 79.266 98.7058 35.613
12056.7 12056.7 1.000000 -0.219234 79.217 98.6348 35.7729
12064.9 12064.8 1.000000 -0.219496 78.9759 98.3607 35.7717
12073.2 12073.2 1.000000 -0.220010 78.7197 98.0917 35.7028
12081.7 12081.7 1.000000 -0.220634 78.49 97.8665 35.7293
12090.3 12090.3 1.000000 -0.221430 78.2307 97.621 35.753
12099.2 12099.2 1.000000 -0.222704 78.0042 97.4622 35.756
12108.2 12108.2 1.000000 -0.224323 77.7897 97.3519 35.8192
12117.4 12117.4 1.000000 -0.226067 77.5092 97.17 35.8737
12126.7 12126.7 1.000000 -0.227485 77.4162 97.1912 35.9321
12136.2 12136.2 1.000000 -0.228415 77.1041 96.8894 35.8065
12145.9 12145.9 1.000000 -0.229010 76.7901 96.5523 35.5839
12155.8 12155.8 1.000000 -0.229396 76.5575 96.297 35.4072
12165.8 12165.8 1.000000 -0.229694 76.3224 96.0299 35.3705
12176.1 12176 1.000000 -0.230468 76.0555 95.7684 35.4367
12186.4 12186.4 1.000000 -0.231591 75.7717 95.5179 35.5375
12197 12197 1.000000 -0.232987 75.5188 95.3321 35.5983
12207.7 12207.7 1.000000 -0.234440 75.2161 95.0882 35.556
12218.6 12218.6 1.000000 -0.235749 74.9839 94.9187 35.5029
12229.7 12229.6 1.000000 -0.236952 74.4053 94.2998 35.3019
12240.9 12240.9 1.000000 -0.238091 74.6167 94.6755 35.5375
12252.3 12252.3 1.000000 -0.239155 74.0849 94.1007 35.4779
12263.9 12263.9 1.000000 -0.240261 72.1946 91.8012 34.7642
12275.6 12275.6 1.000000 -0.241320 73.5834 93.6662 35.5463
12287.6 12287.5 1.000000 -0.242256 71.4395 91.0225 34.5567
12299.6 12299.6 1.000000 -0.243320 72.8652 92.9377 35.279
12311.9 12311.9 1.000000 -0.244388 72.5364 92.6173 35.1692
12324.4 12324.3 1.000000 -0.245662 72.2366 92.3521 35.1397
12337 12336.9 1.000000 -0.247078 71.8457 91.9825 35.1206
12349.7 12349.7 1.000000 -0.248431 71.5471 91.7244 35.1712
12362.7 12362.7 1.000000 -0.249809 71.1204 91.303 35.1303
12375.8 12375.8 1.000000 -0.251001 70.7735 90.9659 35.0731
12389.1 12389.1 1.000000 -0.252146 70.4303 90.6284 34.9922
12402.6 12402.6 1.000000 -0.253363 70.0651 90.2683 34.902
12416.2 12416.2 1.000000 -0.254514 69.7102 89.9146 34.8573
12430 12430 1.000000 -0.255808 69.221 89.3993 34.7763
12444 12444 1.000000 -0.257064 69.0155 89.2459 34.8385
12458.1 12458.1 1.000000 -0.258338 68.5925 88.8119 34.764
12472.5 12472.5 1.000000 -0.259662 68.2365 88.468 34.6873
12487 12487 1.000000 -0.260989 67.7868 88.0016 34.5401
12501.7 12501.6 1.000000 -0.262337 67.3969 87.6135 34.4441
12516.5 12516.5 1.000000 -0.263744 67.0363 87.2675 34.3898
12531.5 12531.5 1.000000 -0.265045 66.6168 86.8343 34.3324
12546.7 12546.6 1.000000 -0.266445 66.2737 86.508 34.3158
12562 12562 1.000000 -0.267711 65.8878 86.1133 34.2648
12577.5 12577.5 1.000000 -0.268939 65.4474 85.6428 34.1615
12593.2 12593.2 1.000000 -0.270265 65.0016 85.1723 34.0442
12609.1 12609.1 1.000000 -0.271689 64.6182 84.7906 33.9625
12625.1 12625.1 1.000000 -0.273035 64.3438 84.5444 33.9529
12641.4 12641.3 1.000000 -0.274487 63.9351 84.1292 33.8868
12657.7 12657.7 1.000000 -0.275873 63.6098 83.8174 33.8596
12674.3 12674.3 1.000000 -0.277267 63.2301 83.4333 33.7976
12691 12691 1.000000 -0.278759 62.7965 82.9848 33.6879
12707.9 12707.9 1.000000 -0.280083 62.3712 82.532 33.5759
12725 12724.9 1.000000 -0.281443 61.9442 82.0786 33.4652
12742.2 12742.2 1.000000 -0.282782 61.5575 81.6753 33.3921
12759.6 12759.6 1.000000 -0.284164 61.1903 81.3004 33.3407
12777.2 12777.2 1.000000 -0.285626 60.7331 80.8111 33.2384
12795 12794.9 1.000000 -0.287068 60.2831 80.3281 33.1361
12812.9 12812.8 1.000000 -0.288462 59.8788 79.9008 33.0447
12831 12830.9 1.000000 -0.289902 59.4313 79.4179 32.9273
12837 12837 1.000000 -0.290397 59.2428 79.2051 32.869

File: As-K-PotassiumAresenate.xdi
# XDI/1.0 BlueSky/1.10.0 BMM/2023-1.0-py310-tiled
# Beamline.name: BMM (06BM) -- Beamline for Materials Measurement (NIST)
# Beamline.xray_source: NSLS-II three-pole wiggler
# Beamline.collimation: paraboloid mirror, 5 nm Rh on 30 nm Pt
# Beamline.focusing: not in use
# Beamline.harmonic_rejection: flat mirror, Pt stripe, pitch = 7.0 mrad relative to beam
# Beamline.software: Bluesky 1.10.0, Ophyd 1.7.0, DataBroker 2.0.0b13, Python 3.10.8, 2023-1.0-py310-tiled
# Detector.I0: 10 cm N2
# Detector.I1: 25 cm N2
# Detector.I2: 25 cm N2
# Element.symbol: As
# Element.edge: K
# Element.reference: As
# Element.reference_material: As2O3
# Facility.name: NSLS-II
# Facility.energy: 3.0
# Facility.current: 400.1
# Facility.mode: top-off
# Facility.GUP: 301027
# Facility.SAF: 310583
# Facility.cycle: 2023-2
# Mono.name: Si(111)
# Mono.d_spacing: 3.13519
# Mono.encoder_resolution: 0.0000050 deg/ct
# Mono.angle_offset: 16.0754 deg
# Mono.scan_mode: pseudo channel cut
# Mono.scan_type: step
# Mono.direction: forward in energy
# Sample.name: K3AsO4.12H2O
# Sample.prep: powder in PEG pellet
# Sample.x: 115.008 mm
# Sample.y: 114.461 mm
# Sample.SDD_position: 170.000 mm
# Scan.experimenters: Bruce Ravel
# Scan.edge_energy: 11866.7
# Scan.start_time: 2023-07-10T16:03:00
# Scan.end_time: 2023-07-10T16:11:01
# Scan.transient_id: 90271
# Scan.uid: 07f5fce9-94da-4d0c-afa2-77c2b7fbf873
# Scan.plot_hint: ln(I0/It)  --  ln($5/$6)
# Column.1: energy eV
# Column.2: requested_energy eV
# Column.3: measurement_time seconds
# Column.4: xmu
# Column.5: I0 nA
# Column.6: It nA
# Column.7: Ir nA
# ///////////
# sample courtesy Evan Jahrman, NIST
# -----------
# energy  requested_energy  measurement_time  xmu  I0  It  Ir
  11666.695  11666.700  0.500  0.300908  65.1137  48.1937  32.7459
  11696.772  11696.700  0.500  0.293864  64.7354  48.2523  32.8738
  11726.689  11726.700  0.500  0.287146  64.3168  48.2635  32.9697
  11756.732  11756.700  0.500  0.280547  63.7928  48.1872  32.9987
  11786.726  11786.700  0.500  0.274513  63.5177  48.2697  33.1263
  11816.772  11816.700  0.500  0.269586  63.0462  48.1481  33.0762
  11838.655  11838.700  0.500  0.269564  62.7821  47.9475  32.8738
  11844.654  11844.700  0.500  0.271125  62.7007  47.8106  32.7128
  11850.646  11850.700  0.500  0.274800  62.6115  47.5674  32.4161
  11856.650  11856.700  0.500  0.283147  62.3748  46.9937  31.7404
  11857.549  11857.600  0.500  0.285062  62.4727  46.9775  31.6644
  11858.455  11858.500  0.500  0.287436  62.4612  46.8574  31.5073
  11859.354  11859.400  0.500  0.290109  62.2398  46.5667  31.2139
  11860.254  11860.300  0.500  0.293393  62.1251  46.3285  30.9424
  11861.160  11861.200  0.500  0.297236  62.2439  46.239  30.7413
  11862.072  11862.100  0.500  0.301840  62.3081  46.0741  30.4724
  11862.979  11863.000  0.500  0.307197  62.2128  45.7579  30.0587
  11863.891  11863.900  0.500  0.313898  62.2667  45.4916  29.6352
  11864.792  11864.800  0.500  0.322419  62.3621  45.1748  29.1103
  11865.699  11865.700  0.500  0.333266  62.3684  44.6919  28.3755
  11866.599  11866.600  0.500  0.347814  62.3413  44.0273  27.387
  11867.488  11867.500  0.500  0.367624  62.3171  43.1469  26.0801
  11868.389  11868.400  0.500  0.395891  62.2926  41.9279  24.2888
  11869.284  11869.300  0.500  0.438534  62.2674  40.1613  21.8529
  11870.185  11870.200  0.500  0.512998  62.2145  37.2477  18.3896
  11871.087  11871.100  0.500  0.652581  62.0662  32.3179  13.9612
  11871.982  11872.000  0.500  0.901797  62.1074  25.2057  9.333110
  11872.884  11872.900  0.500  1.201368  62.1895  18.7055  6.161033
  11873.798  11873.800  0.500  1.451482  62.2006  14.5688  4.755095
  11874.700  11874.700  0.500  1.764351  62.402  10.6893  3.687352
  11875.596  11875.600  0.500  2.267705  62.3969  6.461170  2.339224
  11876.510  11876.500  0.500  2.704933  62.375  4.171314  1.549754
  11877.407  11877.400  0.500  2.548264  62.3676  4.878224  1.875077
  11878.309  11878.300  0.500  2.108408  62.33  7.568800  3.049559
  11879.193  11879.200  0.500  1.784230  62.3162  10.4645  4.379405
  11880.096  11880.100  0.500  1.603849  62.2923  12.5283  5.362599
  11880.993  11881.000  0.500  1.522216  62.2761  13.5904  5.832920
  11881.896  11881.900  0.500  1.488920  62.261  14.0471  5.925086
  11882.793  11882.800  0.500  1.472916  62.2382  14.2685  5.857253
  11883.697  11883.700  0.500  1.463437  62.178  14.3904  5.809477
  11884.606  11884.600  0.500  1.457283  61.8461  14.402  5.819165
  11885.504  11885.500  0.500  1.435440  61.5185  14.642  5.978266
  11886.414  11886.400  0.500  1.398289  61.6396  15.2262  6.286613
  11887.318  11887.300  0.500  1.369269  61.9785  15.7607  6.557036
  11888.209  11888.200  0.500  1.355327  62.0949  16.012  6.690178
  11889.101  11889.100  0.500  1.347410  62.1018  16.141  6.775238
  11890.006  11890.000  0.500  1.340367  62.0937  16.253  6.870936
  11890.898  11890.900  0.500  1.338496  62.0925  16.2831  6.952669
  11891.704  11891.700  0.500  1.341447  62.0734  16.2301  6.981989
  11894.733  11894.710  0.500  1.348160  62.0284  16.1099  7.110820
  11897.911  11897.900  0.500  1.333935  61.9776  16.3273  7.335392
  11901.257  11901.260  0.500  1.220777  61.663  18.1906  8.198542
  11904.802  11904.780  0.500  1.113199  61.8459  20.3168  9.233102
  11908.492  11908.480  0.500  1.036132  61.8411  21.9427  10.0556
  11912.369  11912.350  0.500  0.996903  61.7872  22.8008  10.4466
  11916.416  11916.400  0.500  1.014211  61.4793  22.2978  10.0533
  11920.620  11920.610  0.500  1.056356  61.6728  21.4449  9.577277
  11925.007  11924.990  0.500  1.102209  61.6341  20.4709  9.070167
  11929.557  11929.550  0.500  1.134681  61.5717  19.7968  8.654428
  11934.298  11934.280  0.500  1.163936  61.2208  19.1165  8.309471
  11939.191  11939.180  0.500  1.204787  61.4157  18.4097  7.975275
  11944.268  11944.250  0.500  1.218623  61.3602  18.1404  7.836798
  11949.511  11949.490  0.500  1.231867  61.2904  17.8813  7.716283
  11954.908  11954.910  0.500  1.231453  61.2167  17.8672  7.771591
  11960.510  11960.490  0.500  1.225988  61.1436  17.9437  7.844748
  11966.260  11966.250  0.500  1.231304  61.0562  17.823  7.834922
  11972.196  11972.180  0.500  1.216839  60.9749  18.0586  7.969742
  11978.301  11978.280  0.500  1.187527  60.8956  18.5716  8.226517
  11984.556  11984.550  0.500  1.161369  60.797  19.033  8.475992
  11990.999  11990.990  0.500  1.139048  60.7032  19.4325  8.694674
  11997.619  11997.600  0.500  1.128563  60.6162  19.6092  8.786624
  12004.415  12004.390  0.500  1.121001  60.5264  19.7288  8.822486
  12011.363  12011.350  0.500  1.118533  60.4371  19.7483  8.791397
  12018.477  12018.470  0.500  1.121987  60.3488  19.6515  8.717566
  12025.788  12025.770  0.500  1.127773  60.2516  19.5067  8.636514
  12033.279  12033.250  0.500  1.135928  60.152  19.3163  8.539764
  12040.917  12040.890  0.500  1.141588  60.0335  19.1694  8.478938
  12048.718  12048.700  0.500  1.145775  58.2527  18.523  8.213920
  12056.712  12056.690  0.500  1.147272  59.792  18.9841  8.449931
  12064.875  12064.850  0.500  1.147970  59.6929  18.9394  8.450082
  12073.176  12073.170  0.500  1.144333  59.5798  18.9724  8.472999
  12081.686  12081.670  0.500  1.137502  59.4639  19.0652  8.529086
  12090.368  12090.350  0.500  1.128256  59.3333  19.2001  8.609696
  12099.221  12099.190  0.500  1.120177  59.2351  19.3238  8.678589
  12108.221  12108.200  0.500  1.113166  59.1205  19.4221  8.739248
  12117.402  12117.390  0.500  1.105796  58.9973  19.525  8.806846
  12126.743  12126.750  0.500  1.099690  58.8544  19.597  8.853815
  12136.253  12136.270  0.500  1.093419  58.7497  19.6852  8.897150
  12145.965  12145.970  0.500  1.088727  58.6247  19.7357  8.907243
  12155.860  12155.850  0.500  1.086423  58.4857  19.7343  8.893821
  12165.906  12165.890  0.500  1.084828  58.346  19.7186  8.890669
  12176.131  12176.100  0.500  1.083435  58.2053  19.6985  8.907882
  12186.502  12186.490  0.500  1.081071  58.0663  19.6979  8.939873
  12197.054  12197.050  0.500  1.077881  57.9302  19.7146  8.973055
  12207.812  12207.780  0.500  1.074500  57.9997  19.805  9.026029
  12218.713  12218.680  0.500  1.070862  57.8536  19.8272  9.042683
  12229.803  12229.750  0.500  1.066202  57.7102  19.8704  9.067874
  12241.011  12240.990  0.500  1.060230  57.5126  19.921  9.105822
  12252.410  12252.410  0.500  1.053698  57.395  20.0105  9.173100
  12264.040  12263.990  0.500  1.047167  56.2294  19.7326  9.077234
  12275.785  12275.750  0.500  1.040675  57.0906  20.1653  9.292258
  12287.710  12287.680  0.500  1.034912  56.8883  20.21  9.321862
  12299.857  12299.780  0.500  1.029400  56.5886  20.2147  9.323191
  12312.047  12312.050  0.500  1.024376  56.5939  20.3184  9.373582
  12324.494  12324.490  0.500  1.019427  56.3179  20.3196  9.386322
  12337.132  12337.110  0.500  1.015100  56.2573  20.3857  9.442075
  12349.923  12349.890  0.500  1.010710  55.9617  20.3679  9.459900
  12362.880  12362.850  0.500  1.006301  55.935  20.4481  9.520741
  12376.025  12375.980  0.500  1.001795  55.7771  20.4824  9.555065
  12389.332  12389.280  0.500  0.997129  55.6258  20.5224  9.583033
  12402.782  12402.750  0.500  0.992223  55.4508  20.5585  9.612450
  12416.437  12416.400  0.500  0.986951  55.2504  20.5925  9.644888
  12430.249  12430.210  0.500  0.981165  55.0648  20.6424  9.691881
  12444.242  12444.200  0.500  0.975117  54.9333  20.718  9.754237
  12458.388  12458.360  0.500  0.968963  54.7503  20.7764  9.801231
  12472.716  12472.690  0.500  0.963063  54.5638  20.8282  9.840844
  12487.213  12487.190  0.500  0.957310  54.1687  20.7967  9.834889
  12501.901  12501.860  0.500  0.951792  54.2127  20.9287  9.909814
  12516.746  12516.700  0.500  0.946380  54.0263  20.97  9.945798
  12531.751  12531.720  0.500  0.940861  53.837  21.0121  9.989971
  12546.930  12546.900  0.500  0.935605  53.6627  21.0545  10.0349
  12562.304  12562.260  0.500  0.930310  53.4654  21.0884  10.0752
  12577.840  12577.790  0.500  0.925162  53.2609  21.1162  10.1068
  12593.533  12593.490  0.500  0.919973  53.0833  21.1553  10.1423
  12609.390  12609.360  0.500  0.914485  52.8876  21.1933  10.1774
  12625.448  12625.410  0.500  0.909029  52.687  21.2284  10.2158
  12641.658  12641.620  0.500  0.903224  52.4466  21.2545  10.2505
  12658.057  12658.010  0.500  0.897278  52.3085  21.325  10.3078
  12674.633  12674.570  0.500  0.891324  52.104  21.3685  10.3506
  12691.344  12691.300  0.500  0.885559  51.9024  21.4089  10.3903
  12708.226  12708.200  0.500  0.879683  51.6953  21.4491  10.4243
  12719.607  12719.560  0.500  0.875865  51.5585  21.4742  10.4476