Folder: webxdiviewer/xdidata/As (part 2)

File: As-K-ArsenoBetaine.xdi
# XDI/1.0 BlueSky/1.10.0 BMM/2023-1.0-py310-tiled
# Beamline.name: BMM (06BM) -- Beamline for Materials Measurement (NIST)
# Beamline.xray_source: NSLS-II three-pole wiggler
# Beamline.collimation: paraboloid mirror, 5 nm Rh on 30 nm Pt
# Beamline.focusing: not in use
# Beamline.harmonic_rejection: flat mirror, Pt stripe, pitch = 7.0 mrad relative to beam
# Beamline.software: Bluesky 1.10.0, Ophyd 1.7.0, DataBroker 2.0.0b13, Python 3.10.8, 2023-1.0-py310-tiled
# Detector.I0: 10 cm N2
# Detector.I1: 25 cm N2
# Detector.I2: 25 cm N2
# Element.symbol: As
# Element.edge: K
# Element.reference: As
# Element.reference_material: As2O3
# Facility.name: NSLS-II
# Facility.energy: 3.0
# Facility.current: 400.4
# Facility.mode: top-off
# Facility.GUP: 301027
# Facility.SAF: 310583
# Facility.cycle: 2023-2
# Mono.name: Si(111)
# Mono.d_spacing: 3.13519
# Mono.encoder_resolution: 0.0000050 deg/ct
# Mono.angle_offset: 16.0754 deg
# Mono.scan_mode: pseudo channel cut
# Mono.scan_type: step
# Mono.direction: forward in energy
# Sample.name: C5H11AsO2
# Sample.prep: powder in PEG pellet
# Sample.x: 115.008 mm
# Sample.y: 114.461 mm
# Sample.SDD_position: 170.000 mm
# Scan.experimenters: Bruce Ravel
# Scan.edge_energy: 11866.7
# Scan.start_time: 2023-07-10T17:10:52
# Scan.end_time: 2023-07-10T17:18:47
# Scan.transient_id: 90311
# Scan.uid: 1a66f364-0084-4df2-a304-24d8081f3ab8
# Scan.plot_hint: ln(I0/It)  --  ln($5/$6)
# Column.1: energy eV
# Column.2: requested_energy eV
# Column.3: measurement_time seconds
# Column.4: xmu
# Column.5: I0 nA
# Column.6: It nA
# Column.7: Ir nA
# ///////////
# sample courtesy Evan Jahrman, NIST
# -----------
# energy  requested_energy  measurement_time  xmu  I0  It  Ir
  11666.713  11666.700  0.500  0.129879  64.9871  57.0718  38.8243
  11696.754  11696.700  0.500  0.124229  64.6275  57.0776  38.9317
  11726.749  11726.700  0.500  0.118528  64.2294  57.0503  39.011
  11756.750  11756.700  0.500  0.113319  63.7211  56.8944  39.0035
  11786.695  11786.700  0.500  0.108383  63.4245  56.9098  39.0956
  11816.729  11816.700  0.500  0.104772  62.9882  56.7227  39.0103
  11838.674  11838.700  0.500  0.105392  62.7228  56.4487  38.7464
  11844.672  11844.700  0.500  0.107081  62.6422  56.2811  38.5502
  11850.664  11850.700  0.500  0.110840  62.5482  55.9858  38.1995
  11856.662  11856.700  0.500  0.119514  62.3092  55.2901  37.401
  11857.561  11857.600  0.500  0.121389  62.4119  55.2775  37.3157
  11858.473  11858.500  0.500  0.123819  62.4265  55.1563  37.1396
  11859.367  11859.400  0.500  0.126554  62.2125  54.8171  36.806
  11860.273  11860.300  0.500  0.129940  62.0808  54.5162  36.4684
  11861.172  11861.200  0.500  0.134206  62.1676  54.36  36.2092
  11862.072  11862.100  0.500  0.139072  62.2732  54.188  35.91
  11862.960  11863.000  0.500  0.144521  62.1757  53.8091  35.4351
  11863.879  11863.900  0.500  0.151831  62.2116  53.4481  34.9157
  11864.786  11864.800  0.500  0.160987  62.3087  53.0436  34.2867
  11865.692  11865.700  0.500  0.173185  62.3319  52.42  33.402
  11866.593  11866.600  0.500  0.189485  62.3288  51.5699  32.2416
  11867.500  11867.500  0.500  0.212335  62.3052  50.3858  30.6294
  11868.395  11868.400  0.500  0.244670  62.282  48.7645  28.4852
  11869.278  11869.300  0.500  0.293198  62.268  46.4441  25.5667
  11870.191  11870.200  0.500  0.375324  62.2301  42.7562  21.4568
  11871.093  11871.100  0.500  0.526272  62.0847  36.6799  16.1051
  11872.007  11872.000  0.500  0.810865  62.1106  27.6065  10.4037
  11872.914  11872.900  0.500  1.264068  62.2048  17.573  5.883886
  11873.792  11873.800  0.500  1.718540  62.2266  11.159  3.605460
  11874.688  11874.700  0.500  1.769287  62.2233  10.6062  3.580229
  11875.590  11875.600  0.500  1.462871  62.2049  14.4048  5.092237
  11876.504  11876.500  0.500  1.187748  62.1877  18.9615  6.939680
  11877.413  11877.400  0.500  1.060859  62.1767  21.523  8.203738
  11878.303  11878.300  0.500  1.036638  62.1634  22.0459  8.819993
  11879.212  11879.200  0.500  1.057239  62.1481  21.5911  9.015299
  11880.102  11880.100  0.500  1.083808  62.1388  21.0218  9.004807
  11880.981  11881.000  0.500  1.109441  62.1236  20.4848  8.824077
  11881.902  11881.900  0.500  1.147223  62.1091  19.7207  8.360282
  11882.806  11882.800  0.500  1.198490  62.0878  18.7287  7.711794
  11883.709  11883.700  0.500  1.244033  62.0483  17.8835  7.205777
  11884.619  11884.600  0.500  1.261966  61.7586  17.4837  7.024333
  11885.491  11885.500  0.500  1.245414  61.3849  17.6679  7.173147
  11886.383  11886.400  0.500  1.207510  61.4845  18.3802  7.556315
  11887.299  11887.300  0.500  1.162176  61.8024  19.3321  8.011682
  11888.197  11888.200  0.500  1.118260  61.9452  20.2467  8.433530
  11889.101  11889.100  0.500  1.079272  61.9651  21.0584  8.816126
  11889.999  11890.000  0.500  1.045904  61.9491  21.7673  9.182404
  11890.910  11890.900  0.500  1.017093  61.9435  22.4015  9.545995
  11891.710  11891.700  0.500  0.994962  61.9345  22.8995  9.834106
  11894.726  11894.710  0.500  0.935200  61.8848  24.2903  10.7006
  11897.923  11897.900  0.500  0.886260  61.8281  25.4852  11.4538
  11901.269  11901.260  0.500  0.845851  61.5382  26.4117  11.918
  11904.784  11904.780  0.500  0.827009  61.6995  26.9846  12.2727
  11908.504  11908.480  0.500  0.827721  61.7016  26.9663  12.3752
  11912.363  11912.350  0.500  0.846104  61.878  26.5508  12.1817
  11916.416  11916.400  0.500  0.879037  61.6073  25.5783  11.5399
  11920.614  11920.610  0.500  0.915057  61.7803  24.7426  11.053
  11925.019  11924.990  0.500  0.943269  61.7361  24.0371  10.6484
  11929.564  11929.550  0.500  0.957282  61.6809  23.6815  10.3466
  11934.279  11934.280  0.500  0.961580  61.3868  23.4674  10.1928
  11939.191  11939.180  0.500  0.956847  61.5146  23.6279  10.2296
  11944.256  11944.250  0.500  0.950658  61.4654  23.7556  10.2547
  11949.480  11949.490  0.500  0.943599  61.3952  23.8965  10.3025
  11954.921  11954.910  0.500  0.933824  61.3154  24.0999  10.4756
  11960.516  11960.490  0.500  0.921057  61.2404  24.3797  10.6486
  11966.253  11966.250  0.500  0.907469  61.1523  24.6777  10.8409
  11972.184  11972.180  0.500  0.896411  61.0751  24.9206  10.9943
  11978.276  11978.280  0.500  0.890272  60.9855  25.0372  11.0888
  11984.512  11984.550  0.500  0.888674  60.8957  25.0404  11.1494
  11991.049  11990.990  0.500  0.889694  60.7969  24.9742  11.1734
  11997.838  11997.600  0.500  0.892592  60.6861  24.8566  11.14
  12004.390  12004.390  0.500  0.895949  60.6048  24.7401  11.0657
  12011.351  12011.350  0.500  0.899643  60.5179  24.6135  10.9591
  12018.465  12018.470  0.500  0.902070  60.4218  24.5149  10.8737
  12025.776  12025.770  0.500  0.902631  60.324  24.4615  10.8239
  12033.228  12033.250  0.500  0.900732  60.2229  24.4669  10.8137
  12040.898  12040.890  0.500  0.897509  60.1168  24.5026  10.8335
  12048.699  12048.700  0.500  0.891837  58.2958  23.8956  10.5949
  12056.680  12056.690  0.500  0.884858  59.8798  24.7168  10.9983
  12064.856  12064.850  0.500  0.877859  59.7808  24.8492  11.0872
  12073.176  12073.170  0.500  0.872026  59.6694  24.948  11.1412
  12081.674  12081.670  0.500  0.867670  59.5421  25.0034  11.185
  12090.361  12090.350  0.500  0.865132  59.4133  25.0127  11.2162
  12099.208  12099.190  0.500  0.863893  59.3167  25.003  11.2289
  12108.196  12108.200  0.500  0.863332  59.2039  24.9695  11.2342
  12117.389  12117.390  0.500  0.862553  59.0754  24.9347  11.2469
  12126.743  12126.750  0.500  0.861559  58.9418  24.9031  11.2531
  12136.266  12136.270  0.500  0.859727  58.8415  24.9063  11.2565
  12145.984  12145.970  0.500  0.856919  58.7104  24.9207  11.2494
  12155.853  12155.850  0.500  0.853193  58.5696  24.9537  11.2452
  12165.900  12165.890  0.500  0.848651  58.4378  25.0109  11.2759
  12176.105  12176.100  0.500  0.843284  58.2913  25.0825  11.3403
  12186.483  12186.490  0.500  0.838090  58.1525  25.1531  11.4159
  12197.060  12197.050  0.500  0.833015  58.0106  25.2193  11.4795
  12207.792  12207.780  0.500  0.828377  57.884  25.2813  11.5254
  12218.693  12218.680  0.500  0.824355  57.7408  25.3204  11.5492
  12229.757  12229.750  0.500  0.820992  57.6023  25.3447  11.5678
  12241.024  12240.990  0.500  0.818114  57.4008  25.3289  11.5811
  12252.443  12252.410  0.500  0.815491  57.2897  25.3462  11.6233
  12264.027  12263.990  0.500  0.812343  56.1967  24.9411  11.4778
  12275.765  12275.750  0.500  0.809004  56.9841  25.3751  11.6967
  12287.684  12287.680  0.500  0.805129  56.7826  25.3835  11.7087
  12299.784  12299.780  0.500  0.801040  56.4725  25.3483  11.6949
  12312.061  12312.050  0.500  0.796275  56.4834  25.4743  11.7565
  12324.507  12324.490  0.500  0.791609  56.1999  25.465  11.7688
  12337.152  12337.110  0.500  0.786644  56.1443  25.5665  11.8453
  12349.910  12349.890  0.500  0.781751  55.8484  25.5565  11.8753
  12362.867  12362.850  0.500  0.777253  55.8176  25.6575  11.9536
  12375.992  12375.980  0.500  0.772802  55.6592  25.6988  11.9918
  12389.319  12389.280  0.500  0.768835  55.5113  25.7324  12.0234
  12402.789  12402.750  0.500  0.764895  55.3266  25.7481  12.0443
  12416.403  12416.400  0.500  0.761124  55.1414  25.7588  12.0728
  12430.216  12430.210  0.500  0.757093  54.9449  25.7707  12.1099
  12444.235  12444.200  0.500  0.753074  55.0143  25.9071  12.2032
  12458.388  12458.360  0.500  0.748734  54.837  25.936  12.2456
  12472.695  12472.690  0.500  0.744167  54.6503  25.966  12.2763
  12487.226  12487.190  0.500  0.739516  54.2416  25.8919  12.2548
  12501.901  12501.860  0.500  0.734589  54.2902  26.0432  12.3399
  12516.726  12516.700  0.500  0.729859  54.1026  26.0762  12.3789
  12531.738  12531.720  0.500  0.724916  53.9074  26.1109  12.4232
  12546.923  12546.900  0.500  0.720497  53.7367  26.1434  12.473
  12562.297  12562.260  0.500  0.715864  53.5391  26.1683  12.5109
  12577.826  12577.790  0.500  0.711710  53.3326  26.1759  12.5404
  12593.519  12593.490  0.500  0.707332  53.1527  26.202  12.574
  12609.383  12609.360  0.500  0.703075  52.9567  26.2168  12.603
  12625.469  12625.410  0.500  0.698548  52.7525  26.2342  12.6349
  12641.658  12641.620  0.500  0.693971  52.5195  26.2381  12.6662
  12658.044  12658.010  0.500  0.689346  52.3743  26.2869  12.7183
  12674.612  12674.570  0.500  0.684574  52.1746  26.3119  12.758
  12691.330  12691.300  0.500  0.679816  51.9665  26.332  12.792
  12708.233  12708.200  0.500  0.674992  51.765  26.3567  12.8236
  12719.586  12719.560  0.500  0.671684  51.6256  26.3728  12.8469

File: As-K-DisodiumMethylArsenate.xdi
# XDI/1.0 BlueSky/1.10.0 BMM/2023-1.0-py310-tiled
# Beamline.name: BMM (06BM) -- Beamline for Materials Measurement (NIST)
# Beamline.xray_source: NSLS-II three-pole wiggler
# Beamline.collimation: paraboloid mirror, 5 nm Rh on 30 nm Pt
# Beamline.focusing: not in use
# Beamline.harmonic_rejection: flat mirror, Pt stripe, pitch = 7.0 mrad relative to beam
# Beamline.software: Bluesky 1.10.0, Ophyd 1.7.0, DataBroker 2.0.0b13, Python 3.10.8, 2023-1.0-py310-tiled
# Detector.I0: 10 cm N2
# Detector.I1: 25 cm N2
# Detector.I2: 25 cm N2
# Element.symbol: As
# Element.edge: K
# Element.reference: As
# Element.reference_material: As2O3
# Facility.name: NSLS-II
# Facility.energy: 3.0
# Facility.current: 399.5
# Facility.mode: top-off
# Facility.GUP: 301027
# Facility.SAF: 310583
# Facility.cycle: 2023-2
# Mono.name: Si(111)
# Mono.d_spacing: 3.13519
# Mono.encoder_resolution: 0.0000050 deg/ct
# Mono.angle_offset: 16.0754 deg
# Mono.scan_mode: pseudo channel cut
# Mono.scan_type: step
# Mono.direction: forward in energy
# Sample.name: CH3AsNa2O3
# Sample.prep: powder in PEG pellet
# Sample.x: 115.008 mm
# Sample.y: 114.461 mm
# Sample.SDD_position: 170.000 mm
# Scan.experimenters: Bruce Ravel
# Scan.edge_energy: 11866.7
# Scan.start_time: 2023-07-10T16:36:55
# Scan.end_time: 2023-07-10T16:44:42
# Scan.transient_id: 90291
# Scan.uid: 3eb41b49-2685-4329-9fbe-431ac868b727
# Scan.plot_hint: ln(I0/It)  --  ln($5/$6)
# Column.1: energy eV
# Column.2: requested_energy eV
# Column.3: measurement_time seconds
# Column.4: xmu
# Column.5: I0 nA
# Column.6: It nA
# Column.7: Ir nA
# ///////////
# sample courtesy Evan Jahrman, NIST
# -----------
# energy  requested_energy  measurement_time  xmu  I0  It  Ir
  11666.689  11666.700  0.500  0.147228  64.8502  55.972  38.0169
  11696.724  11696.700  0.500  0.141184  64.4943  56.0023  38.139
  11726.749  11726.700  0.500  0.135473  64.0819  55.9629  38.2174
  11756.720  11756.700  0.500  0.129719  63.5765  55.8419  38.2257
  11786.738  11786.700  0.500  0.124422  63.2943  55.8893  38.3397
  11816.754  11816.700  0.500  0.120204  62.8601  55.7405  38.2782
  11838.698  11838.700  0.500  0.119241  62.5885  55.5532  38.0715
  11844.678  11844.700  0.500  0.120150  62.5047  55.4284  37.9088
  11850.676  11850.700  0.500  0.122485  62.4199  55.2241  37.6176
  11856.668  11856.700  0.500  0.127887  62.1809  54.7163  36.9466
  11857.555  11857.600  0.500  0.129189  62.2902  54.7411  36.8819
  11858.455  11858.500  0.500  0.130754  62.2826  54.6489  36.7281
  11859.367  11859.400  0.500  0.132415  62.0809  54.3814  36.4372
  11860.279  11860.300  0.500  0.134654  61.9436  54.1399  36.1455
  11861.185  11861.200  0.500  0.137341  62.2647  54.2745  36.0699
  11862.097  11862.100  0.500  0.140296  62.3488  54.1874  35.8251
  11862.979  11863.000  0.500  0.143795  62.2513  53.9137  35.4149
  11863.879  11863.900  0.500  0.148127  62.3006  53.7231  34.9992
  11864.773  11864.800  0.500  0.153439  62.4053  53.5283  34.5041
  11865.686  11865.700  0.500  0.160566  62.4242  53.1643  33.7685
  11866.581  11866.600  0.500  0.169588  62.4043  52.67  32.7962
  11867.494  11867.500  0.500  0.182150  62.383  51.9948  31.4389
  11868.407  11868.400  0.500  0.198851  62.3843  51.1346  29.647
  11869.296  11869.300  0.500  0.222448  62.3619  49.9242  27.1752
  11870.185  11870.200  0.500  0.258416  62.311  48.1212  23.7875
  11871.093  11871.100  0.500  0.321284  62.1655  45.0835  19.3195
  11872.000  11872.000  0.500  0.438896  62.1985  40.1023  14.6446
  11872.902  11872.900  0.500  0.667959  62.2796  31.9341  10.4873
  11873.798  11873.800  0.500  1.061950  62.3074  21.5447  7.006637
  11874.700  11874.700  0.500  1.582781  62.3032  12.7973  4.357641
  11875.596  11875.600  0.500  1.941524  62.2901  8.937696  3.170340
  11876.486  11876.500  0.500  1.847277  62.2762  9.818840  3.574909
  11877.400  11877.400  0.500  1.544070  62.2659  13.2944  5.045724
  11878.315  11878.300  0.500  1.303561  62.2346  16.9006  6.739217
  11879.206  11879.200  0.500  1.185834  62.2154  19.0063  7.894987
  11880.102  11880.100  0.500  1.142950  62.1978  19.8335  8.441821
  11881.018  11881.000  0.500  1.122002  62.1927  20.2516  8.649711
  11881.896  11881.900  0.500  1.094048  62.1611  20.8152  8.736861
  11882.787  11882.800  0.500  1.060556  62.1513  21.5207  8.790039
  11883.697  11883.700  0.500  1.025516  62.0886  22.2657  8.931937
  11884.612  11884.600  0.500  0.989096  61.787  22.9794  9.220807
  11885.504  11885.500  0.500  0.955257  61.4188  23.6286  9.592196
  11886.408  11886.400  0.500  0.935709  61.5315  24.1393  9.918023
  11887.311  11887.300  0.500  0.934696  61.8658  24.295  10.0557
  11888.191  11888.200  0.500  0.949193  61.9937  23.9948  9.979154
  11889.089  11889.100  0.500  0.972995  62.0132  23.4379  9.789173
  11889.993  11890.000  0.500  0.996167  62.0005  22.8963  9.629881
  11890.904  11890.900  0.500  1.006380  61.9933  22.661  9.622483
  11891.704  11891.700  0.500  0.998723  61.9728  22.8277  9.761083
  11894.720  11894.710  0.500  0.909593  61.9357  24.9408  10.9428
  11897.923  11897.900  0.500  0.856396  61.8896  26.2839  11.7572
  11901.263  11901.260  0.500  0.781693  61.5845  28.1829  12.6533
  11904.802  11904.780  0.500  0.725044  61.751  29.9062  13.539
  11908.480  11908.480  0.500  0.689209  61.7521  30.9979  14.1558
  11912.369  11912.350  0.500  0.678454  61.6913  31.3022  14.2907
  11916.422  11916.400  0.500  0.687646  61.4048  30.8718  13.8657
  11920.626  11920.610  0.500  0.721956  61.5944  29.9226  13.3135
  11925.019  11924.990  0.500  0.748667  61.5478  29.1119  12.8451
  11929.551  11929.550  0.500  0.758765  61.4876  28.7912  12.5346
  11934.292  11934.280  0.500  0.780206  61.177  28.0381  12.1325
  11939.203  11939.180  0.500  0.801157  61.3261  27.5237  11.8695
  11944.268  11944.250  0.500  0.816858  61.274  27.072  11.6439
  11949.499  11949.490  0.500  0.828213  61.2203  26.7428  11.4893
  11954.908  11954.910  0.500  0.827381  61.1375  26.7289  11.5745
  11960.503  11960.490  0.500  0.822408  61.0653  26.8304  11.6749
  11966.216  11966.250  0.500  0.815996  60.972  26.9617  11.7972
  11972.146  11972.180  0.500  0.803413  60.8859  27.2646  11.9788
  11978.257  11978.280  0.500  0.790614  60.798  27.5759  12.1636
  11984.575  11984.550  0.500  0.776388  60.6876  27.9202  12.3816
  11990.993  11990.990  0.500  0.762346  60.5887  28.2689  12.5944
  11997.594  11997.600  0.500  0.752518  60.5198  28.5156  12.7228
  12004.396  12004.390  0.500  0.747391  60.4489  28.6286  12.7504
  12011.357  12011.350  0.500  0.746582  60.3653  28.6122  12.6846
  12018.465  12018.470  0.500  0.748538  60.4645  28.6032  12.6332
  12025.776  12025.770  0.500  0.751625  60.3621  28.4667  12.545
  12033.241  12033.250  0.500  0.754619  60.2512  28.3295  12.467
  12040.898  12040.890  0.500  0.757964  60.138  28.1818  12.407
  12048.705  12048.700  0.500  0.760716  58.3076  27.249  12.0282
  12056.686  12056.690  0.500  0.760633  59.8834  27.9877  12.4002
  12064.869  12064.850  0.500  0.759433  59.7941  27.9795  12.4289
  12073.176  12073.170  0.500  0.755988  59.6775  28.0214  12.4574
  12081.674  12081.670  0.500  0.751865  59.553  28.0784  12.5043
  12090.342  12090.350  0.500  0.746764  59.4184  28.1582  12.5706
  12099.176  12099.190  0.500  0.741162  59.3277  28.2732  12.6432
  12108.209  12108.200  0.500  0.736038  59.21  28.3621  12.7049
  12117.408  12117.390  0.500  0.730505  59.0814  28.4575  12.7802
  12126.782  12126.750  0.500  0.725727  58.9443  28.5274  12.8306
  12136.279  12136.270  0.500  0.721517  58.8354  28.5949  12.8677
  12145.997  12145.970  0.500  0.718000  58.7024  28.6307  12.8671
  12155.886  12155.850  0.500  0.715082  58.566  28.6477  12.8533
  12165.919  12165.890  0.500  0.712444  58.4347  28.6589  12.8661
  12176.124  12176.100  0.500  0.709949  58.2962  28.6625  12.9045
  12186.528  12186.490  0.500  0.707745  58.1554  28.6563  12.9494
  12197.073  12197.050  0.500  0.705476  58.0066  28.6479  12.9844
  12207.812  12207.780  0.500  0.702854  57.8725  28.6568  13.0085
  12218.706  12218.680  0.500  0.699633  57.7384  28.6826  13.0258
  12229.764  12229.750  0.500  0.696253  57.6105  28.7159  13.0493
  12241.011  12240.990  0.500  0.691868  57.3998  28.7366  13.079
  12252.410  12252.410  0.500  0.687317  57.2827  28.8088  13.1513
  12263.995  12263.990  0.500  0.682738  56.2306  28.4095  13.0143
  12275.765  12275.750  0.500  0.677552  56.9802  28.9379  13.2813
  12287.704  12287.680  0.500  0.672657  56.7843  28.9799  13.3142
  12299.778  12299.780  0.500  0.667520  56.4685  28.9671  13.3044
  12312.054  12312.050  0.500  0.663074  56.4827  29.1036  13.3732
  12324.514  12324.490  0.500  0.658993  56.1973  29.0749  13.3782
  12337.132  12337.110  0.500  0.655018  56.1492  29.1657  13.4519
  12349.910  12349.890  0.500  0.651404  55.8555  29.1182  13.4694
  12362.860  12362.850  0.500  0.647862  55.8191  29.2025  13.5413
  12376.012  12375.980  0.500  0.644445  55.6638  29.2209  13.5759
  12389.312  12389.280  0.500  0.640654  55.5158  29.2539  13.6074
  12402.762  12402.750  0.500  0.636785  55.3334  29.2708  13.6316
  12416.410  12416.400  0.500  0.632773  55.1315  29.2813  13.6612
  12430.229  12430.210  0.500  0.628073  54.9461  29.3203  13.712
  12444.221  12444.200  0.500  0.623419  54.8121  29.3852  13.7791
  12458.401  12458.360  0.500  0.618454  54.6242  29.4302  13.8297
  12472.695  12472.690  0.500  0.613607  54.4521  29.4801  13.8741
  12487.206  12487.190  0.500  0.608568  54.0378  29.4036  13.8512
  12501.901  12501.860  0.500  0.603800  54.0908  29.5731  13.9475
  12516.740  12516.700  0.500  0.599258  53.8986  29.6022  13.9873
  12531.738  12531.720  0.500  0.594780  53.7136  29.633  14.0348
  12546.923  12546.900  0.500  0.590703  53.5352  29.6552  14.0809
  12562.297  12562.260  0.500  0.586544  53.336  29.6679  14.1196
  12577.854  12577.790  0.500  0.582371  53.1259  29.6747  14.1494
  12593.526  12593.490  0.500  0.578295  52.9564  29.7008  14.186
  12609.383  12609.360  0.500  0.573883  52.7536  29.7179  14.2188
  12625.434  12625.410  0.500  0.569409  52.5506  29.7363  14.2559
  12641.672  12641.620  0.500  0.564924  52.3159  29.7365  14.2876
  12658.030  12658.010  0.500  0.560027  52.1658  29.7968  14.3496
  12674.619  12674.570  0.500  0.555085  51.9618  29.8273  14.3927
  12691.344  12691.300  0.500  0.550300  51.759  29.8534  14.4352
  12708.219  12708.200  0.500  0.545454  51.5461  29.875  14.4669
  12719.600  12719.560  0.500  0.542368  51.3986  29.8816  14.4868