Folder: webxdiviewer/xdidata/Au (part 7)

File: Au-L3-La4LiAuO8.xdi
# XDI/1.0 BlueSky/1.10.0 BMM/2023-1.0-py310-tiled
# Beamline.name: BMM (06BM) -- Beamline for Materials Measurement (NIST)
# Beamline.xray_source: NSLS-II three-pole wiggler
# Beamline.collimation: paraboloid mirror, 5 nm Rh on 30 nm Pt
# Beamline.focusing: not in use
# Beamline.harmonic_rejection: flat mirror, Pt stripe, pitch = 7.0 mrad relative to beam
# Beamline.software: Bluesky 1.10.0, Ophyd 1.7.0, DataBroker 2.0.0b13, Python 3.10.8, 2023-1.0-py310-tiled
# Detector.I0: 10 cm N2
# Detector.I1: 25 cm N2
# Detector.I2: 25 cm N2
# Element.symbol: Au
# Element.edge: L3
# Element.reference: Au
# Element.reference_material: Au foil
# Facility.name: NSLS-II
# Facility.energy: 3.0
# Facility.current: 399.6
# Facility.mode: top-off
# Facility.GUP: 301027
# Facility.SAF: 310583
# Facility.cycle: 2023-2
# Mono.name: Si(111)
# Mono.d_spacing: 3.13519
# Mono.encoder_resolution: 0.0000050 deg/ct
# Mono.angle_offset: 16.0754 deg
# Mono.scan_mode: pseudo channel cut
# Mono.scan_type: step
# Mono.direction: forward in energy
# Sample.name: La4LiAuO8
# Sample.prep: powder on tape
# Sample.x: 145.711 mm
# Sample.y: 114.376 mm
# Sample.SDD_position: 205.000 mm
# Scan.experimenters: Bruce Ravel
# Scan.edge_energy: 11918.7
# Scan.start_time: 2023-06-27T18:15:36
# Scan.end_time: 2023-06-27T18:23:23
# Scan.transient_id: 85217
# Scan.uid: f5d821ce-a7ba-4166-845f-8c5996ea4c0d
# Scan.plot_hint: ln(I0/It)  --  ln($5/$6)
# Column.1: energy eV
# Column.2: requested_energy eV
# Column.3: measurement_time seconds
# Column.4: xmu
# Column.5: I0 nA
# Column.6: It nA
# Column.7: Ir nA
# ///////////
# sample courtesy Martin Stennett, University of Sheffield, see DOI: 10.1021/ic100486g
# -----------
# energy  requested_energy  measurement_time  xmu  I0  It  Ir
  11718.702  11718.700  0.500  1.224874  64.5281  18.958  12.0584
  11748.728  11748.700  0.500  1.213798  64.0446  19.0255  12.1421
  11778.801  11778.700  0.500  1.202958  63.5516  19.0848  12.2192
  11808.751  11808.700  0.500  1.192127  63.2932  19.2142  12.3405
  11838.710  11838.700  0.500  1.181867  62.91  19.2948  12.4311
  11868.732  11868.700  0.500  1.171854  62.5285  19.3708  12.5071
  11890.676  11890.700  0.500  1.166268  62.2001  19.377  12.5113
  11896.660  11896.700  0.500  1.165565  62.1137  19.3637  12.4918
  11902.669  11902.700  0.500  1.165957  61.3812  19.1279  12.3151
  11908.671  11908.700  0.500  1.169271  61.971  19.2478  12.3398
  11909.541  11909.600  0.500  1.170182  61.9474  19.2229  12.3101
  11910.449  11910.500  0.500  1.171660  61.9511  19.1957  12.2775
  11911.344  11911.400  0.500  1.173301  62.1052  19.2119  12.2687
  11912.258  11912.300  0.500  1.175165  62.0799  19.1683  12.2189
  11913.172  11913.200  0.500  1.177603  62.0786  19.1212  12.1624
  11914.080  11914.100  0.500  1.180861  62.0478  19.0496  12.0823
  11914.982  11915.000  0.500  1.185037  62.0193  18.9615  11.9854
  11915.884  11915.900  0.500  1.190518  61.9274  18.8299  11.8463
  11916.793  11916.800  0.500  1.197797  61.567  18.5845  11.6214
  11917.677  11917.700  0.500  1.207627  61.3268  18.3309  11.3725
  11918.592  11918.600  0.500  1.221379  61.5572  18.1485  11.1409
  11919.482  11919.500  0.500  1.240768  61.8658  17.8892  10.8175
  11920.391  11920.400  0.500  1.268414  61.9463  17.4241  10.3223
  11921.300  11921.300  0.500  1.306445  61.9477  16.7743  9.674585
  11922.197  11922.200  0.500  1.349930  61.9462  16.0601  9.004288
  11923.094  11923.100  0.500  1.387046  61.9335  15.4718  8.451964
  11923.998  11924.000  0.500  1.402651  61.9207  15.229  8.166298
  11924.889  11924.900  0.500  1.395394  61.9077  15.3367  8.127469
  11925.786  11925.800  0.500  1.377358  61.8914  15.6117  8.220086
  11926.709  11926.700  0.500  1.359864  61.8732  15.8826  8.340241
  11927.594  11927.600  0.500  1.346073  61.8566  16.0988  8.452035
  11928.504  11928.500  0.500  1.332816  61.8428  16.31  8.564840
  11929.409  11929.400  0.500  1.320690  61.8345  16.5068  8.662596
  11930.276  11930.300  0.500  1.310560  61.823  16.6717  8.728631
  11931.199  11931.200  0.500  1.302519  61.8011  16.8004  8.766875
  11932.091  11932.100  0.500  1.295761  61.7761  16.9075  8.781243
  11933.002  11933.000  0.500  1.289910  61.7533  17.0004  8.789075
  11933.913  11933.900  0.500  1.285186  61.6197  17.0439  8.773052
  11934.800  11934.800  0.500  1.282554  61.1928  16.9705  8.706332
  11935.705  11935.700  0.500  1.283030  61.0609  16.9259  8.661963
  11936.586  11936.600  0.500  1.286148  61.3204  16.9448  8.660015
  11937.497  11937.500  0.500  1.290388  61.5939  16.9484  8.653241
  11938.390  11938.400  0.500  1.295188  61.6384  16.8795  8.611458
  11939.302  11939.300  0.500  1.299375  61.634  16.8077  8.564926
  11940.208  11940.200  0.500  1.302911  61.637  16.7492  8.520020
  11941.102  11941.100  0.500  1.305821  61.6202  16.696  8.478124
  11942.002  11942.000  0.500  1.309017  61.6051  16.6386  8.435552
  11942.877  11942.900  0.500  1.312142  61.5945  16.5839  8.393873
  11943.691  11943.700  0.500  1.315142  61.5698  16.5276  8.339896
  11946.734  11946.710  0.500  1.325639  61.5318  16.3449  8.050188
  11949.897  11949.900  0.500  1.329546  61.4887  16.2698  7.946160
  11953.285  11953.260  0.500  1.328606  61.4425  16.2728  8.090805
  11956.781  11956.780  0.500  1.328496  61.3888  16.2604  8.129369
  11960.497  11960.480  0.500  1.333250  61.3375  16.1697  8.118858
  11964.359  11964.350  0.500  1.344620  61.2855  15.9734  7.964322
  11968.429  11968.400  0.500  1.361191  61.2212  15.6944  7.721472
  11972.621  11972.610  0.500  1.359407  61.159  15.7064  7.683957
  11976.990  11976.990  0.500  1.340924  61.0959  15.9829  7.877844
  11981.575  11981.550  0.500  1.326203  61.0318  16.2029  8.037883
  11986.282  11986.280  0.500  1.321341  60.9632  16.2636  8.102915
  11991.175  11991.180  0.500  1.318826  60.8874  16.2843  8.163753
  11996.272  11996.250  0.500  1.319783  60.827  16.2526  8.166564
  12001.505  12001.490  0.500  1.324004  60.7473  16.1629  8.095108
  12006.906  12006.910  0.500  1.319532  60.6779  16.2168  8.069092
  12012.481  12012.490  0.500  1.311007  60.6075  16.3367  8.116121
  12018.244  12018.250  0.500  1.309274  60.5276  16.3434  8.148204
  12024.145  12024.180  0.500  1.311941  60.4432  16.2772  8.136505
  12030.336  12030.280  0.500  1.315926  60.3616  16.1905  8.095397
  12036.595  12036.550  0.500  1.317932  60.4546  16.183  8.104504
  12043.032  12042.990  0.500  1.316835  60.3538  16.1737  8.131463
  12049.647  12049.600  0.500  1.311834  59.3722  15.9905  8.064152
  12056.421  12056.390  0.500  1.304522  60.1571  16.3207  8.227063
  12063.380  12063.350  0.500  1.298940  60.0775  16.3904  8.248367
  12070.480  12070.470  0.500  1.295884  59.9735  16.4121  8.249109
  12077.798  12077.770  0.500  1.296224  59.8817  16.3814  8.232107
  12085.265  12085.250  0.500  1.295206  59.7795  16.3701  8.234107
  12092.908  12092.890  0.500  1.291291  59.4944  16.356  8.227109
  12100.725  12100.700  0.500  1.287723  59.5724  16.4359  8.279721
  12108.706  12108.690  0.500  1.284833  59.4668  16.4543  8.324185
  12116.852  12116.850  0.500  1.284590  59.3603  16.4288  8.332058
  12125.187  12125.170  0.500  1.284372  59.2489  16.4015  8.324499
  12133.657  12133.670  0.500  1.283140  59.1516  16.3948  8.319574
  12142.350  12142.350  0.500  1.279466  59.0293  16.4211  8.315535
  12151.190  12151.190  0.500  1.274650  58.8981  16.4637  8.323895
  12160.211  12160.200  0.500  1.270127  58.7666  16.5014  8.358302
  12169.401  12169.390  0.500  1.267052  58.6625  16.5229  8.407138
  12178.779  12178.750  0.500  1.263659  58.5278  16.541  8.443796
  12188.294  12188.270  0.500  1.261864  58.3989  16.5342  8.446998
  12197.993  12197.970  0.500  1.258032  58.2638  16.5593  8.468624
  12207.896  12207.850  0.500  1.253690  58.1445  16.5973  8.493386
  12217.906  12217.890  0.500  1.249949  58.0127  16.6218  8.499343
  12228.129  12228.100  0.500  1.247657  57.8856  16.6234  8.498622
  12238.505  12238.490  0.500  1.245060  57.5929  16.5824  8.501734
  12249.070  12249.050  0.500  1.242826  57.5884  16.6181  8.552857
  12259.790  12259.780  0.500  1.239840  57.4369  16.624  8.568468
  12270.707  12270.680  0.500  1.235624  57.1455  16.6095  8.571386
  12281.748  12281.750  0.500  1.229973  57.1377  16.7014  8.631763
  12292.987  12292.990  0.500  1.225870  56.5306  16.5919  8.578124
  12304.412  12304.410  0.500  1.222396  56.8155  16.7335  8.656366
  12316.004  12315.990  0.500  1.219448  56.6565  16.7359  8.666958
  12327.770  12327.750  0.500  1.216356  56.4684  16.732  8.687325
  12339.686  12339.680  0.500  1.211741  56.3405  16.7714  8.731851
  12351.777  12351.780  0.500  1.207334  56.1738  16.7956  8.763161
  12364.059  12364.050  0.500  1.203011  55.953  16.8021  8.774466
  12376.512  12376.490  0.500  1.199212  55.8632  16.8389  8.801141
  12389.112  12389.110  0.500  1.196359  55.7154  16.8424  8.812921
  12401.891  12401.890  0.500  1.193183  55.5388  16.8424  8.828195
  12414.865  12414.850  0.500  1.188399  55.3602  16.8687  8.859792
  12428.001  12427.980  0.500  1.183789  55.1851  16.8931  8.893031
  12441.294  12441.280  0.500  1.178892  55.0351  16.9299  8.932177
  12454.770  12454.750  0.500  1.173953  54.7849  16.9364  8.951817
  12468.453  12468.400  0.500  1.169889  54.6358  16.959  8.976372
  12482.234  12482.210  0.500  1.165925  54.4708  16.975  8.996805
  12496.223  12496.200  0.500  1.161826  54.3254  16.9992  9.022221
  12510.414  12510.360  0.500  1.157399  54.1335  17.0143  9.048430
  12524.740  12524.690  0.500  1.152574  53.9467  17.0376  9.079424
  12539.223  12539.190  0.500  1.147801  53.6979  17.0402  9.103646
  12553.884  12553.860  0.500  1.142990  53.5788  17.0844  9.144218
  12568.752  12568.700  0.500  1.138897  53.3916  17.0945  9.169190
  12583.773  12583.720  0.500  1.134485  53.1957  17.1071  9.191000
  12598.948  12598.900  0.500  1.129979  53.0025  17.1219  9.211476
  12614.299  12614.260  0.500  1.124997  52.803  17.1427  9.241064
  12629.841  12629.790  0.500  1.119365  52.5836  17.1679  9.272108
  12645.547  12645.490  0.500  1.114606  52.4134  17.1939  9.309496
  12661.397  12661.360  0.500  1.109756  52.2206  17.214  9.339478
  12677.449  12677.410  0.500  1.104899  52.0179  17.2306  9.370259
  12693.662  12693.620  0.500  1.100318  51.8148  17.2422  9.396573
  12710.057  12710.010  0.500  1.095380  51.782  17.3166  9.454580
  12726.615  12726.570  0.500  1.090308  51.5745  17.3348  9.481903
  12743.352  12743.300  0.500  1.084895  51.3768  17.3621  9.516213
  12760.233  12760.200  0.500  1.079976  51.1621  17.3748  9.542905
  12771.588  12771.560  0.500  1.076543  51.0256  17.3881  9.566533