Folder: webxdiviewer/xdidata/Au

Note: xdidata/README.md
# bmm-standards
A pretty webpage for BMM's collection of common XAFS materials

[BMM's common materials collection](./BMM-standards.html)

Plotting of the data will happen soon.

Periodic table adapted from [some guy named Daniel](https://codepen.io/gooseofmusic/pen/PjKdNQ)

[This](https://www.coderstool.com/scss-to-css) is a helpful tool for
dealing with Sassy CSS.

File: Au-L1-GoldAcetate.xdi
# XDI/1.0 BlueSky/1.10.0 BMM/2023-1.0-py310-tiled
# Beamline.name: BMM (06BM) -- Beamline for Materials Measurement (NIST)
# Beamline.xray_source: NSLS-II three-pole wiggler
# Beamline.collimation: paraboloid mirror, 5 nm Rh on 30 nm Pt
# Beamline.focusing: not in use
# Beamline.harmonic_rejection: flat mirror, Pt stripe, pitch = 7.0 mrad relative to beam
# Beamline.software: Bluesky 1.10.0, Ophyd 1.7.0, DataBroker 2.0.0b13, Python 3.10.8, 2023-1.0-py310-tiled
# Detector.I0: 10 cm N2
# Detector.I1: 25 cm N2
# Detector.I2: 25 cm N2
# Element.symbol: Au
# Element.edge: L1
# Element.reference: Au
# Element.reference_material: Au foil
# Facility.name: NSLS-II
# Facility.energy: 3.0
# Facility.current: 400.2
# Facility.mode: top-off
# Facility.GUP: 301027
# Facility.SAF: 310583
# Facility.cycle: 2023-2
# Mono.name: Si(111)
# Mono.d_spacing: 3.13519
# Mono.encoder_resolution: 0.0000050 deg/ct
# Mono.angle_offset: 16.0754 deg
# Mono.scan_mode: pseudo channel cut
# Mono.scan_type: step
# Mono.direction: forward in energy
# Sample.name: Au(C2H3O2)3, gold scetate
# Sample.prep: powder on tape
# Sample.x: 145.711 mm
# Sample.y: 114.376 mm
# Sample.SDD_position: 205.000 mm
# Scan.experimenters: Bruce Ravel
# Scan.edge_energy: 14352.8
# Scan.start_time: 2023-06-27T20:36:29
# Scan.end_time: 2023-06-27T20:44:16
# Scan.transient_id: 85303
# Scan.uid: e0957071-d6e3-4ff7-96a0-32c466f3bf60
# Scan.plot_hint: ln(I0/It)  --  ln($5/$6)
# Column.1: energy eV
# Column.2: requested_energy eV
# Column.3: measurement_time seconds
# Column.4: xmu
# Column.5: I0 nA
# Column.6: It nA
# Column.7: Ir nA
# ///////////
# sample courtesy Martin Stennett, University of Sheffield
# -----------
# energy  requested_energy  measurement_time  xmu  I0  It  Ir
  14152.564  14152.800  0.500  1.067533  34.4572  11.8483  6.699823
  14182.871  14182.800  0.500  1.060909  34.3583  11.8928  6.742780
  14212.877  14212.800  0.500  1.054528  34.1145  11.884  6.751746
  14242.835  14242.800  0.500  1.046006  33.8894  11.9066  6.786294
  14272.849  14272.800  0.500  1.038003  31.8943  11.2957  6.456710
  14302.875  14302.800  0.500  1.034521  33.4322  11.8817  6.804842
  14324.843  14324.800  0.500  1.032699  33.3068  11.8587  6.794669
  14330.810  14330.800  0.500  1.032854  33.2459  11.8352  6.780414
  14336.801  14336.800  0.500  1.034108  33.2266  11.8135  6.766857
  14342.787  14342.800  0.500  1.037838  33.173  11.7505  6.722029
  14343.677  14343.700  0.500  1.038779  33.1437  11.7291  6.709188
  14344.586  14344.600  0.500  1.039933  33.1281  11.7101  6.695976
  14345.467  14345.500  0.500  1.041376  33.1382  11.6967  6.685551
  14346.376  14346.400  0.500  1.042619  33.1415  11.6834  6.674398
  14347.267  14347.300  0.500  1.044248  33.135  11.6621  6.657992
  14348.167  14348.200  0.500  1.046264  33.1214  11.6338  6.637874
  14349.058  14349.100  0.500  1.048848  33.1236  11.6046  6.617077
  14349.994  14350.000  0.500  1.051570  33.1089  11.5679  6.590049
  14350.894  14350.900  0.500  1.055019  33.1077  11.5276  6.560407
  14351.776  14351.800  0.500  1.058790  33.0914  11.4786  6.522729
  14352.695  14352.700  0.500  1.063654  33.0787  11.4185  6.478402
  14353.613  14353.600  0.500  1.069397  33.0745  11.3517  6.427874
  14354.496  14354.500  0.500  1.075817  33.0604  11.2742  6.371562
  14355.379  14355.400  0.500  1.083152  33.0631  11.1927  6.310544
  14356.289  14356.300  0.500  1.091421  33.0448  11.0944  6.236962
  14357.172  14357.200  0.500  1.100167  33.0268  10.9918  6.162951
  14358.091  14358.100  0.500  1.109055  32.9897  10.8824  6.084108
  14359.010  14359.000  0.500  1.118235  32.9421  10.7673  6.000620
  14359.893  14359.900  0.500  1.126672  32.927  10.672  5.931120
  14360.813  14360.800  0.500  1.135819  32.9734  10.5897  5.868105
  14361.714  14361.700  0.500  1.144632  32.9785  10.4984  5.800515
  14362.598  14362.600  0.500  1.153480  33.0002  10.4128  5.735011
  14363.482  14363.500  0.500  1.162579  32.9787  10.3117  5.663039
  14364.393  14364.400  0.500  1.171056  32.9699  10.222  5.596596
  14365.286  14365.300  0.500  1.179291  32.9636  10.1362  5.535977
  14366.206  14366.200  0.500  1.186552  32.9458  10.0574  5.480090
  14367.099  14367.100  0.500  1.192096  32.9102  9.991006  5.433635
  14368.020  14368.000  0.500  1.196262  32.89  9.943379  5.398837
  14368.922  14368.900  0.500  1.198879  32.8695  9.911197  5.377692
  14369.798  14369.800  0.500  1.200554  32.8971  9.902940  5.371178
  14370.691  14370.700  0.500  1.200767  32.9199  9.907682  5.374044
  14371.585  14371.600  0.500  1.200092  32.9028  9.909208  5.376240
  14372.488  14372.500  0.500  1.198717  32.9006  9.922209  5.385406
  14373.391  14373.400  0.500  1.196867  32.9038  9.941527  5.399593
  14374.312  14374.300  0.500  1.194753  32.8833  9.956366  5.411190
  14375.207  14375.200  0.500  1.192124  32.8553  9.974089  5.425966
  14376.110  14376.100  0.500  1.189546  32.8279  9.991491  5.438901
  14376.995  14377.000  0.500  1.186704  32.7831  10.0062  5.452629
  14377.800  14377.800  0.500  1.184509  32.7895  10.0302  5.470899
  14380.819  14380.810  0.500  1.178509  32.8286  10.1026  5.521150
  14384.029  14384.000  0.500  1.179644  32.7937  10.0804  5.507161
  14387.358  14387.360  0.500  1.187371  32.7309  9.983665  5.439495
  14390.897  14390.880  0.500  1.196922  32.7556  9.896200  5.374450
  14394.601  14394.580  0.500  1.200087  32.7338  9.858380  5.348790
  14398.479  14398.450  0.500  1.194141  32.6976  9.906209  5.387262
  14402.522  14402.500  0.500  1.184816  32.8008  10.0306  5.470916
  14406.704  14406.710  0.500  1.180895  32.7593  10.0572  5.494264
  14411.105  14411.090  0.500  1.180616  32.6304  10.0204  5.473435
  14415.628  14415.650  0.500  1.181326  32.6893  10.0314  5.478982
  14420.381  14420.380  0.500  1.182640  32.6604  10.0094  5.464652
  14425.283  14425.280  0.500  1.184230  32.6192  9.980871  5.446704
  14430.361  14430.350  0.500  1.185700  32.588  9.956697  5.431193
  14435.588  14435.590  0.500  1.183898  32.529  9.956592  5.435421
  14441.047  14441.010  0.500  1.178308  32.5388  10.0154  5.475321
  14446.584  14446.590  0.500  1.173863  32.358  10.0041  5.480250
  14452.362  14452.350  0.500  1.171708  32.4478  10.0535  5.510528
  14458.281  14458.280  0.500  1.170771  32.3944  10.0464  5.509309
  14464.362  14464.380  0.500  1.168919  32.3492  10.051  5.514438
  14470.657  14470.650  0.500  1.166574  32.3081  10.0618  5.526717
  14477.078  14477.090  0.500  1.165207  32.266  10.0624  5.529231
  14483.651  14483.700  0.500  1.164798  32.1984  10.0454  5.521305
  14490.469  14490.490  0.500  1.164468  32.1631  10.0377  5.517261
  14497.403  14497.450  0.500  1.162408  32.1171  10.0441  5.524477
  14504.694  14504.570  0.500  1.159764  32.0574  10.0519  5.535774
  14511.845  14511.870  0.500  1.156702  31.9957  10.0633  5.548570
  14519.325  14519.350  0.500  1.153981  31.9548  10.0779  5.562584
  14526.961  14526.990  0.500  1.151417  31.9175  10.0919  5.573772
  14534.809  14534.800  0.500  1.148336  31.8517  10.1022  5.587016
  14542.785  14542.790  0.500  1.147085  31.7989  10.0981  5.587830
  14550.945  14550.950  0.500  1.147134  31.6969  10.0652  5.569114
  14559.264  14559.270  0.500  1.146354  31.6788  10.0673  5.571968
  14567.768  14567.770  0.500  1.144281  31.618  10.0688  5.577380
  14576.449  14576.450  0.500  1.141068  31.5554  10.0813  5.590645
  14585.281  14585.290  0.500  1.136562  31.4881  10.1052  5.612291
  14594.328  14594.300  0.500  1.132195  31.4312  10.1311  5.635761
  14603.489  14603.490  0.500  1.129331  31.3718  10.1409  5.646758
  14612.830  14612.850  0.500  1.127773  31.2965  10.1324  5.644481
  14622.389  14622.370  0.500  1.126753  31.2352  10.1228  5.644615
  14632.044  14632.070  0.500  1.124240  31.1773  10.1295  5.651775
  14641.965  14641.950  0.500  1.122178  31.1023  10.126  5.655068
  14652.004  14651.990  0.500  1.119129  31.0368  10.1355  5.666797
  14662.197  14662.200  0.500  1.114669  30.9536  10.1535  5.683352
  14672.583  14672.590  0.500  1.110675  30.8915  10.1737  5.704670
  14683.145  14683.150  0.500  1.108277  30.8006  10.1681  5.706188
  14693.901  14693.880  0.500  1.106659  30.7525  10.1687  5.710167
  14704.797  14704.780  0.500  1.104175  30.6799  10.1699  5.716142
  14715.869  14715.850  0.500  1.100898  30.6102  10.1801  5.729084
  14727.120  14727.090  0.500  1.098124  30.5337  10.1829  5.737254
  14738.540  14738.510  0.500  1.094659  30.3464  10.1555  5.729178
  14750.101  14750.090  0.500  1.090826  30.3889  10.2088  5.766590
  14761.853  14761.850  0.500  1.087015  30.3074  10.2203  5.781427
  14773.785  14773.780  0.500  1.083901  30.2227  10.2235  5.790226
  14785.919  14785.880  0.500  1.081455  30.1263  10.2159  5.790737
  14798.169  14798.150  0.500  1.078379  30.0681  10.2276  5.801648
  14810.612  14810.590  0.500  1.075485  29.9782  10.2265  5.810089
  14823.220  14823.210  0.500  1.072100  29.899  10.2341  5.820483
  14835.994  14835.990  0.500  1.068324  29.7806  10.2321  5.827472
  14848.983  14848.950  0.500  1.064347  29.7111  10.2489  5.845257
  14862.131  14862.080  0.500  1.060846  29.6996  10.2809  5.871385
  14875.409  14875.380  0.500  1.057481  29.6454  10.2967  5.887503
  14888.885  14888.850  0.500  1.054446  29.5491  10.2945  5.893862
  14902.580  14902.500  0.500  1.051101  29.466  10.2999  5.904379
  14916.349  14916.310  0.500  1.047460  29.3767  10.3062  5.914661
  14930.339  14930.300  0.500  1.043585  29.2903  10.3157  5.927853
  14944.492  14944.460  0.500  1.039602  29.1968  10.3239  5.942742
  14958.829  14958.790  0.500  1.035683  29.1064  10.3323  5.955456
  14973.331  14973.290  0.500  1.032111  28.9687  10.3202  5.956798
  14988.009  14987.960  0.500  1.028281  28.903  10.3363  5.972776
  15002.834  15002.800  0.500  1.024768  28.8228  10.3439  5.987181
  15017.846  15017.820  0.500  1.021145  28.7232  10.3456  5.994077
  15033.048  15033.000  0.500  1.017362  28.6313  10.3516  6.005356
  15048.399  15048.360  0.500  1.013207  28.5407  10.3618  6.020987
  15063.900  15063.890  0.500  1.008963  28.4372  10.3681  6.033230
  15079.594  15079.590  0.500  1.004903  28.33  10.3711  6.044088
  15095.450  15095.460  0.500  1.000651  28.2373  10.3812  6.059716
  15111.529  15111.510  0.500  0.997061  28.1294  10.3787  6.067772
  15127.733  15127.720  0.500  0.993046  28.0367  10.3861  6.080537
  15144.163  15144.110  0.500  0.988995  27.9293  10.3883  6.088513
  15160.709  15160.670  0.500  0.985106  27.7759  10.3715  6.089185
  15177.433  15177.400  0.500  0.980942  27.7226  10.3948  6.112270
  15194.356  15194.300  0.500  0.976490  27.6171  10.4014  6.124962
  15205.669  15205.660  0.500  0.973721  27.5522  10.4058  6.134919

File: Au-L1-GoldFoil.xdi
# XDI/1.0 BlueSky/1.10.0 BMM/2023-1.0-py310-tiled
# Beamline.name: BMM (06BM) -- Beamline for Materials Measurement (NIST)
# Beamline.xray_source: NSLS-II three-pole wiggler
# Beamline.collimation: paraboloid mirror, 5 nm Rh on 30 nm Pt
# Beamline.focusing: not in use
# Beamline.harmonic_rejection: flat mirror, Pt stripe, pitch = 7.0 mrad relative to beam
# Beamline.software: Bluesky 1.10.0, Ophyd 1.7.0, DataBroker 2.0.0b13, Python 3.10.8, 2023-1.0-py310-tiled
# Detector.I0: 10 cm N2
# Detector.I1: 25 cm N2
# Detector.I2: 25 cm N2
# Element.symbol: Au
# Element.edge: L1
# Element.reference: Au
# Element.reference_material: Au foil
# Facility.name: NSLS-II
# Facility.energy: 3.0
# Facility.current: 399.3
# Facility.mode: top-off
# Facility.GUP: 301027
# Facility.SAF: 310583
# Facility.cycle: 2023-2
# Mono.name: Si(111)
# Mono.d_spacing: 3.13519
# Mono.encoder_resolution: 0.0000050 deg/ct
# Mono.angle_offset: 16.0754 deg
# Mono.scan_mode: pseudo channel cut
# Mono.scan_type: step
# Mono.direction: forward in energy
# Sample.name: Au foil
# Sample.prep: reference foil
# Sample.x: 109.138 mm
# Sample.y: 153.150 mm
# Sample.SDD_position: 205.000 mm
# Scan.experimenters: Bruce Ravel
# Scan.edge_energy: 14352.8
# Scan.start_time: 2023-05-28T21:16:02
# Scan.end_time: 2023-05-28T21:23:30
# Scan.transient_id: 79022
# Scan.uid: 98e7ac45-160f-475e-a7c4-6604776e5a9e
# Scan.plot_hint: ln(It/Ir)  --  ln($6/$7)
# Column.1: energy eV
# Column.2: requested_energy eV
# Column.3: measurement_time seconds
# Column.4: xmu
# Column.5: I0 nA
# Column.6: It nA
# Column.7: Ir nA
# ///////////
# Welcome to BMM
# -----------
# energy  requested_energy  measurement_time  xmu  I0  It  Ir
  14152.730  14152.800  0.500  0.594283  33.7992  60.5635  33.4285
  14182.810  14182.800  0.500  0.591612  33.699  60.4195  33.4382
  14212.771  14212.800  0.500  0.589140  33.4806  60.0537  33.3181
  14242.746  14242.800  0.500  0.585737  33.4669  60.0661  33.4385
  14272.778  14272.800  0.500  0.582660  32.4427  58.2584  32.5321
  14302.767  14302.800  0.500  0.580927  33.0593  59.3916  33.2225
  14324.744  14324.800  0.500  0.579909  32.9004  59.1316  33.1107
  14330.739  14330.800  0.500  0.579997  32.8227  58.9976  33.0328
  14336.747  14336.800  0.500  0.580226  32.7999  58.9611  33.0048
  14342.751  14342.800  0.500  0.581450  32.7316  58.8406  32.897
  14343.614  14343.700  0.500  0.581907  32.737  58.8543  32.8896
  14344.559  14344.600  0.500  0.582170  32.7009  58.7946  32.8476
  14345.431  14345.500  0.500  0.582635  32.7202  58.8311  32.8528
  14346.322  14346.400  0.500  0.583162  32.7191  58.8261  32.8327
  14347.258  14347.300  0.500  0.583825  32.7022  58.798  32.7952
  14348.149  14348.200  0.500  0.584410  32.6922  58.7812  32.7667
  14349.049  14349.100  0.500  0.585300  32.6874  58.7777  32.7356
  14349.994  14350.000  0.500  0.586353  32.6635  58.7303  32.6748
  14350.867  14350.900  0.500  0.587441  32.6664  58.7381  32.6436
  14351.785  14351.800  0.500  0.588947  32.6664  58.7328  32.5915
  14352.713  14352.700  0.500  0.590672  32.6493  58.709  32.5221
  14353.604  14353.600  0.500  0.592596  32.6362  58.6793  32.4432
  14354.496  14354.500  0.500  0.595014  32.6197  58.6625  32.3556
  14355.415  14355.400  0.500  0.597620  32.6194  58.6594  32.2696
  14356.298  14356.300  0.500  0.600307  32.6137  58.6511  32.1785
  14357.190  14357.200  0.500  0.603220  32.5815  58.5957  32.0546
  14358.100  14358.100  0.500  0.606031  32.5093  58.4677  31.8948
  14359.001  14359.000  0.500  0.608876  32.5178  58.473  31.8071
  14359.875  14359.900  0.500  0.611595  32.5171  58.4814  31.7253
  14360.786  14360.800  0.500  0.614544  32.5436  58.5305  31.6584
  14361.678  14361.700  0.500  0.617400  32.5413  58.5238  31.5645
  14362.598  14362.600  0.500  0.620326  32.5425  58.5262  31.4736
  14363.491  14363.500  0.500  0.623102  32.5254  58.5008  31.3727
  14364.384  14364.400  0.500  0.625827  32.5116  58.4739  31.273
  14365.322  14365.300  0.500  0.628355  32.5076  58.4727  31.1934
  14366.215  14366.200  0.500  0.630227  32.4926  58.4374  31.1162
  14367.099  14367.100  0.500  0.631697  32.4495  58.3631  31.031
  14368.011  14368.000  0.500  0.632757  32.44  58.3424  30.9871
  14368.922  14368.900  0.500  0.633093  32.4615  58.3836  30.9986
  14369.807  14369.800  0.500  0.633364  32.4632  58.3921  30.9947
  14370.691  14370.700  0.500  0.633210  32.4938  58.4555  31.0331
  14371.585  14371.600  0.500  0.632873  32.4646  58.393  31.0104
  14372.515  14372.500  0.500  0.632306  32.4441  58.3606  31.0108
  14373.382  14373.400  0.500  0.631575  32.4348  58.3393  31.0221
  14374.276  14374.300  0.500  0.630794  32.4121  58.3037  31.0274
  14375.188  14375.200  0.500  0.629960  32.3884  58.2642  31.0323
  14376.092  14376.100  0.500  0.628875  32.3435  58.1767  31.0193
  14376.986  14377.000  0.500  0.627977  32.3461  58.1899  31.0542
  14377.782  14377.800  0.500  0.627259  32.3682  58.225  31.0953
  14380.837  14380.810  0.500  0.625781  32.3857  58.2659  31.1631
  14384.029  14384.000  0.500  0.626552  32.322  58.1462  31.0752
  14387.349  14387.360  0.500  0.629300  32.2983  58.1086  30.9698
  14390.870  14390.880  0.500  0.632341  32.3098  58.1354  30.89
  14394.610  14394.580  0.500  0.632575  32.2844  58.096  30.8619
  14398.488  14398.450  0.500  0.630060  32.2462  58.0285  30.9036
  14402.486  14402.500  0.500  0.627198  32.3046  58.138  31.0507
  14406.740  14406.710  0.500  0.626045  32.2917  58.1087  31.0709
  14411.105  14411.090  0.500  0.626024  32.1095  57.7957  30.9041
  14415.646  14415.650  0.500  0.626226  32.2349  58.0291  31.0227
  14420.399  14420.380  0.500  0.626659  32.1593  57.8919  30.9359
  14425.301  14425.280  0.500  0.627051  32.1786  57.9317  30.9451
  14430.343  14430.350  0.500  0.627306  32.1136  57.8188  30.8769
  14435.616  14435.590  0.500  0.626423  32.0941  57.7868  30.887
  14441.002  14441.010  0.500  0.624527  32.0529  57.7236  30.9119
  14446.602  14446.590  0.500  0.623092  31.9719  57.5806  30.8795
  14452.334  14452.350  0.500  0.622362  31.9682  57.5815  30.9026
  14458.272  14458.280  0.500  0.622005  31.9211  57.5031  30.8715
  14464.398  14464.380  0.500  0.621177  31.8817  57.4323  30.8591
  14470.685  14470.650  0.500  0.620297  31.8618  57.4016  30.8697
  14477.096  14477.090  0.500  0.619718  31.8012  57.298  30.8319
  14483.715  14483.700  0.500  0.619568  31.7436  57.2045  30.7861
  14490.487  14490.490  0.500  0.619288  31.7033  57.1375  30.7587
  14497.477  14497.450  0.500  0.618487  31.6513  57.0443  30.7331
  14504.565  14504.570  0.500  0.617472  31.6006  56.9618  30.7198
  14511.891  14511.870  0.500  0.616391  31.5479  56.8763  30.7069
  14519.344  14519.350  0.500  0.615354  31.5078  56.806  30.7008
  14527.007  14526.990  0.500  0.614380  31.4505  56.7099  30.6787
  14534.827  14534.800  0.500  0.613110  31.3873  56.6057  30.6613
  14542.812  14542.790  0.500  0.612630  31.3533  56.5519  30.6468
  14550.982  14550.950  0.500  0.612599  31.2579  56.3837  30.5566
  14559.254  14559.270  0.500  0.612163  31.2296  56.3411  30.5469
  14567.805  14567.770  0.500  0.611284  31.1679  56.2394  30.5185
  14576.496  14576.450  0.500  0.610005  31.108  56.1448  30.5062
  14585.281  14585.290  0.500  0.608413  31.0419  56.0228  30.4884
  14594.300  14594.300  0.500  0.606919  30.9912  55.9503  30.4945
  14603.508  14603.490  0.500  0.605893  30.9288  55.8418  30.4666
  14612.886  14612.850  0.500  0.605272  30.8446  55.699  30.4075
  14622.370  14622.370  0.500  0.604579  30.804  55.6318  30.3919
  14632.072  14632.070  0.500  0.603857  30.7306  55.5101  30.3473
  14641.994  14641.950  0.500  0.602993  30.6508  55.3789  30.3017
  14652.023  14651.990  0.500  0.601733  30.6  55.2981  30.2957
  14662.225  14662.200  0.500  0.600035  30.5144  55.1383  30.2595
  14672.602  14672.590  0.500  0.598687  30.4631  55.058  30.2562
  14683.173  14683.150  0.500  0.597708  30.3871  54.9344  30.2178
  14693.864  14693.880  0.500  0.596954  30.382  54.9287  30.2375
  14704.825  14704.780  0.500  0.595841  30.3117  54.809  30.2052
  14715.869  14715.850  0.500  0.594791  30.2673  54.7372  30.1973
  14727.129  14727.090  0.500  0.593658  30.1798  54.5892  30.1498
  14738.549  14738.510  0.500  0.592387  30.0722  54.4071  30.0874
  14750.111  14750.090  0.500  0.591007  30.0264  54.3386  30.0911
  14761.843  14761.850  0.500  0.589582  29.9358  54.1818  30.047
  14773.747  14773.780  0.500  0.588245  29.8647  54.0621  30.0208
  14785.881  14785.880  0.500  0.587332  29.7492  53.858  29.9347
  14798.169  14798.150  0.500  0.586213  29.6996  53.7817  29.9258
  14810.631  14810.590  0.500  0.585062  29.62  53.6435  29.8832
  14823.220  14823.210  0.500  0.583768  29.5328  53.5  29.8419
  14836.023  14835.990  0.500  0.582368  29.3542  53.1825  29.7063
  14848.964  14848.950  0.500  0.580898  29.3571  53.2053  29.7628
  14862.121  14862.080  0.500  0.579500  29.2231  52.966  29.6704
  14875.418  14875.380  0.500  0.578123  29.1933  52.9277  29.6898
  14888.875  14888.850  0.500  0.576893  29.1621  52.8776  29.6982
  14902.570  14902.500  0.500  0.575681  29.1122  52.8013  29.6913
  14916.388  14916.310  0.500  0.574280  29.0215  52.6401  29.6422
  14930.368  14930.300  0.500  0.572722  28.9244  52.4748  29.5952
  14944.482  14944.460  0.500  0.571238  28.8382  52.3305  29.5576
  14958.878  14958.790  0.500  0.569675  28.7494  52.1795  29.5184
  14973.321  14973.290  0.500  0.568460  28.6428  51.998  29.4515
  14987.970  14987.960  0.500  0.567102  28.5546  51.8514  29.4084
  15002.804  15002.800  0.500  0.565732  28.466  51.6985  29.3619
  15017.866  15017.820  0.500  0.564369  28.3788  51.5464  29.3154
  15033.018  15033.000  0.500  0.562969  28.2765  51.3742  29.2584
  15048.399  15048.360  0.500  0.561332  28.1876  51.2281  29.223
  15063.920  15063.890  0.500  0.559698  28.0805  51.0433  29.1652
  15079.604  15079.590  0.500  0.558178  27.9859  50.8825  29.1176
  15095.519  15095.460  0.500  0.556673  27.8834  50.7104  29.0628
  15111.529  15111.510  0.500  0.555124  27.7813  50.5321  29.0055
  15127.763  15127.720  0.500  0.553786  27.6873  50.3736  28.9532
  15144.113  15144.110  0.500  0.552212  27.5861  50.1989  28.8983
  15160.719  15160.670  0.500  0.550687  27.4327  49.9264  28.7852
  15177.423  15177.400  0.500  0.549068  27.3824  49.8485  28.7869
  15194.346  15194.300  0.500  0.547472  27.2775  49.6736  28.7317
  15205.690  15205.660  0.500  0.546417  27.2053  49.5508  28.6909