Folder: webxdiviewer/xdidata/Bi (part 3)

File: Bi-L3-BismuthMetal.xdi
# XDI/1.0 BlueSky/1.10.0 BMM/2023-1.0-py310-tiled
# Beamline.name: BMM (06BM) -- Beamline for Materials Measurement (NIST)
# Beamline.xray_source: NSLS-II three-pole wiggler
# Beamline.collimation: paraboloid mirror, 5 nm Rh on 30 nm Pt
# Beamline.focusing: not in use
# Beamline.harmonic_rejection: flat mirror, Pt stripe, pitch = 7.0 mrad relative to beam
# Beamline.software: Bluesky 1.10.0, Ophyd 1.7.0, DataBroker 2.0.0b13, Python 3.10.8, 2023-1.0-py310-tiled
# Detector.I0: 10 cm N2
# Detector.I1: 25 cm N2
# Detector.I2: 25 cm N2
# Element.symbol: Bi
# Element.edge: L3
# Element.reference: Bi
# Element.reference_material: BiO2
# Facility.name: NSLS-II
# Facility.energy: 3.0
# Facility.current: 399.8
# Facility.mode: top-off
# Facility.GUP: 301027
# Facility.SAF: 310583
# Facility.cycle: 2023-2
# Mono.name: Si(111)
# Mono.d_spacing: 3.13519
# Mono.encoder_resolution: 0.0000050 deg/ct
# Mono.angle_offset: 16.0754 deg
# Mono.scan_mode: pseudo channel cut
# Mono.scan_type: step
# Mono.direction: forward in energy
# Sample.name: Bi
# Sample.prep: powder in PEG pellet
# Sample.x: 143.785 mm
# Sample.y: 114.695 mm
# Sample.SDD_position: 205.000 mm
# Scan.experimenters: Bruce Ravel
# Scan.edge_energy: 13418.6
# Scan.start_time: 2023-06-23T17:35:02
# Scan.end_time: 2023-06-23T17:42:53
# Scan.transient_id: 84904
# Scan.uid: eec6dd28-c707-4b1f-9133-84df9fd360cf
# Scan.plot_hint: ln(I0/It)  --  ln($5/$6)
# Column.1: energy eV
# Column.2: requested_energy eV
# Column.3: measurement_time seconds
# Column.4: xmu
# Column.5: I0 nA
# Column.6: It nA
# Column.7: Ir nA
# ///////////
# BMM standards collection
# -----------
# energy  requested_energy  measurement_time  xmu  I0  It  Ir
  13218.636  13218.600  0.500  0.329442  45.0046  32.3729  16.4682
  13248.686  13248.600  0.500  0.324764  44.6946  32.3007  16.4971
  13278.621  13278.600  0.500  0.320368  43.776  31.7762  16.2958
  13308.638  13308.600  0.500  0.316061  43.4416  31.6696  16.3076
  13338.653  13338.600  0.500  0.312170  43.1597  31.5868  16.3246
  13368.642  13368.600  0.500  0.309503  42.8857  31.4701  16.303
  13390.537  13390.600  0.500  0.309881  42.7504  31.3589  16.2282
  13396.542  13396.600  0.500  0.311182  42.6897  31.2737  16.1618
  13402.530  13402.600  0.500  0.314057  42.6346  31.1436  16.0455
  13408.547  13408.600  0.500  0.319883  42.5879  30.9288  15.8501
  13409.418  13409.500  0.500  0.321071  42.5757  30.8832  15.808
  13410.329  13410.400  0.500  0.322918  42.5683  30.8208  15.7559
  13411.247  13411.300  0.500  0.324583  42.5521  30.7579  15.6957
  13412.150  13412.200  0.500  0.326582  42.5449  30.6913  15.6329
  13413.053  13413.100  0.500  0.329160  42.5446  30.612  15.5598
  13413.964  13414.000  0.500  0.332181  42.5277  30.5075  15.4658
  13414.876  13414.900  0.500  0.335830  42.5142  30.3868  15.3581
  13415.755  13415.800  0.500  0.340230  42.5068  30.2481  15.234
  13416.659  13416.700  0.500  0.345562  42.4971  30.0804  15.0841
  13417.571  13417.600  0.500  0.352222  42.4793  29.8682  14.895
  13418.451  13418.500  0.500  0.360405  42.6034  29.7114  14.7159
  13419.363  13419.400  0.500  0.370820  42.5868  29.3921  14.4316
  13420.282  13420.300  0.500  0.383116  42.5667  29.0191  14.0813
  13421.163  13421.200  0.500  0.396306  42.5653  28.638  13.7094
  13422.059  13422.100  0.500  0.410423  42.546  28.2237  13.3001
  13422.995  13423.000  0.500  0.425552  42.5353  27.793  12.8784
  13423.900  13423.900  0.500  0.440889  42.5184  27.359  12.4776
  13424.789  13424.800  0.500  0.455771  42.5117  26.9507  12.1091
  13425.709  13425.700  0.500  0.471705  42.4946  26.514  11.7212
  13426.599  13426.600  0.500  0.486590  42.4783  26.1122  11.3332
  13427.488  13427.500  0.500  0.501081  42.4511  25.7201  10.915
  13428.425  13428.400  0.500  0.515342  42.4056  25.3287  10.4311
  13429.298  13429.300  0.500  0.527385  42.3876  25.0149  9.960672
  13430.196  13430.200  0.500  0.537708  42.3943  24.7619  9.500771
  13431.101  13431.100  0.500  0.546420  42.4163  24.5598  9.087787
  13431.999  13432.000  0.500  0.553232  42.4127  24.391  8.746119
  13432.881  13432.900  0.500  0.558542  42.3971  24.2529  8.463249
  13433.795  13433.800  0.500  0.562585  42.3874  24.1495  8.228675
  13434.670  13434.700  0.500  0.565774  42.3817  24.0695  8.039954
  13435.584  13435.600  0.500  0.568210  42.3562  23.9964  7.863698
  13436.490  13436.500  0.500  0.569640  42.3548  23.9613  7.714617
  13437.388  13437.400  0.500  0.570870  42.3393  23.9232  7.584734
  13438.295  13438.300  0.500  0.571459  42.3282  23.9028  7.467761
  13439.210  13439.200  0.500  0.571621  42.317  23.8926  7.371391
  13440.108  13440.100  0.500  0.572021  42.3005  23.8737  7.291309
  13441.007  13441.000  0.500  0.572608  42.3019  23.8605  7.223858
  13441.907  13441.900  0.500  0.573653  42.2754  23.8207  7.157134
  13442.798  13442.800  0.500  0.575044  42.2834  23.792  7.103669
  13443.603  13443.600  0.500  0.576824  42.2576  23.7352  7.045450
  13446.625  13446.610  0.500  0.582483  42.2367  23.5896  6.914420
  13449.799  13449.800  0.500  0.584407  42.1735  23.509  6.966011
  13453.188  13453.160  0.500  0.583811  42.1651  23.5183  7.133101
  13456.696  13456.680  0.500  0.580465  42.1308  23.578  7.284716
  13460.397  13460.380  0.500  0.580684  42.0868  23.5482  7.320109
  13464.258  13464.250  0.500  0.582541  42.047  23.4823  7.297980
  13468.335  13468.300  0.500  0.582246  42.0047  23.4656  7.290285
  13472.541  13472.510  0.500  0.580179  41.9618  23.4901  7.300336
  13476.893  13476.890  0.500  0.580561  41.9064  23.4502  7.296928
  13481.470  13481.450  0.500  0.582302  41.6138  23.2459  7.224158
  13486.193  13486.180  0.500  0.582727  41.8402  23.3625  7.208382
  13491.086  13491.080  0.500  0.581811  41.8095  23.3667  7.140646
  13496.173  13496.150  0.500  0.580385  41.7599  23.3723  7.109340
  13501.384  13501.390  0.500  0.579085  41.7019  23.3702  7.115311
  13506.829  13506.810  0.500  0.578303  41.6487  23.3586  7.141603
  13512.383  13512.390  0.500  0.578015  41.5899  23.3324  7.169186
  13518.189  13518.150  0.500  0.577322  41.5148  23.3064  7.190018
  13524.080  13524.080  0.500  0.577123  41.4552  23.2776  7.209271
  13530.215  13530.180  0.500  0.576472  41.3851  23.2533  7.227109
  13536.445  13536.450  0.500  0.575611  41.2315  23.187  7.225560
  13542.896  13542.890  0.500  0.574438  41.3029  23.2544  7.254751
  13549.498  13549.500  0.500  0.573681  41.2304  23.2312  7.246395
  13556.314  13556.290  0.500  0.572939  40.8693  23.0448  7.178747
  13563.275  13563.250  0.500  0.572180  41.1098  23.198  7.219857
  13570.395  13570.370  0.500  0.571246  41.0227  23.1705  7.214811
  13577.692  13577.670  0.500  0.570300  40.9168  23.1326  7.211321
  13585.142  13585.150  0.500  0.569427  40.9077  23.1476  7.223727
  13592.810  13592.790  0.500  0.568905  40.5192  22.9397  7.167492
  13600.624  13600.600  0.500  0.568151  40.7868  23.1087  7.235382
  13608.593  13608.590  0.500  0.567431  40.6974  23.0746  7.249208
  13616.765  13616.750  0.500  0.566154  40.6271  23.0642  7.271775
  13625.094  13625.070  0.500  0.564621  40.6095  23.0896  7.298032
  13633.578  13633.570  0.500  0.563591  40.6096  23.1134  7.313623
  13642.252  13642.250  0.500  0.562833  40.5319  23.0867  7.300564
  13651.117  13651.090  0.500  0.562344  40.4046  23.0254  7.278203
  13660.123  13660.100  0.500  0.561891  40.3623  23.0118  7.281386
  13669.305  13669.290  0.500  0.561109  40.2776  22.9815  7.287642
  13678.654  13678.650  0.500  0.559863  40.1873  22.9585  7.293889
  13688.164  13688.170  0.500  0.558450  40.093  22.937  7.294145
  13697.883  13697.870  0.500  0.556941  39.9972  22.9167  7.296484
  13707.789  13707.750  0.500  0.555769  39.916  22.8971  7.300566
  13717.808  13717.790  0.500  0.555011  39.8156  22.8568  7.311068
  13728.039  13728.000  0.500  0.554135  39.7185  22.821  7.319261
  13738.426  13738.390  0.500  0.553113  39.6312  22.7941  7.328263
  13748.969  13748.950  0.500  0.551791  39.5249  22.7631  7.330827
  13759.719  13759.680  0.500  0.550340  39.4146  22.7325  7.331151
  13770.602  13770.580  0.500  0.548843  39.318  22.7108  7.334597
  13781.676  13781.650  0.500  0.547396  39.2182  22.6859  7.341541
  13792.910  13792.890  0.500  0.546193  39.1088  22.6499  7.347230
  13804.328  13804.310  0.500  0.545106  38.9964  22.6093  7.351066
  13815.908  13815.890  0.500  0.543861  38.8672  22.5625  7.350907
  13827.690  13827.650  0.500  0.542348  38.7745  22.5428  7.360981
  13839.594  13839.580  0.500  0.540929  38.6667  22.512  7.368907
  13851.728  13851.680  0.500  0.539204  38.5258  22.4688  7.373271
  13863.992  13863.950  0.500  0.537777  38.4082  22.4321  7.382405
  13876.430  13876.390  0.500  0.536491  38.2335  22.3588  7.376463
  13889.059  13889.010  0.500  0.535141  37.9247  22.2082  7.344631
  13901.829  13901.790  0.500  0.533681  37.7284  22.1256  7.332458
  13914.784  13914.750  0.500  0.532164  37.6585  22.1181  7.347139
  13927.916  13927.880  0.500  0.530667  37.5348  22.0784  7.350949
  13941.217  13941.180  0.500  0.528952  37.4487  22.0656  7.366377
  13954.705  13954.650  0.500  0.527360  37.3253  22.0279  7.375079
  13968.331  13968.300  0.500  0.525827  37.1181  21.9393  7.363458
  13982.172  13982.110  0.500  0.524327  37.1455  21.9884  7.397851
  13996.134  13996.100  0.500  0.522705  37.0125  21.9453  7.402064
  14010.331  14010.260  0.500  0.521136  36.887  21.9052  7.411020
  14024.582  14024.590  0.500  0.519210  36.7437  21.8621  7.416640
  14039.130  14039.090  0.500  0.517526  36.617  21.8235  7.425929
  14053.794  14053.760  0.500  0.515672  36.4808  21.7827  7.430707
  14068.636  14068.600  0.500  0.514086  36.2374  21.6716  7.413248
  14083.667  14083.620  0.500  0.512461  36.1687  21.6658  7.431753
  14098.842  14098.800  0.500  0.510900  36.1233  21.6724  7.456350
  14114.199  14114.160  0.500  0.508911  35.9013  21.582  7.446603
  14129.729  14129.690  0.500  0.507126  35.9162  21.6296  7.486622
  14145.416  14145.390  0.500  0.505248  35.7657  21.5794  7.491363
  14161.287  14161.260  0.500  0.503327  35.5172  21.4707  7.474018
  14177.326  14177.310  0.500  0.501503  35.5433  21.5257  7.514731
  14193.543  14193.520  0.500  0.499696  35.3797  21.4654  7.517824
  14209.938  14209.910  0.500  0.497695  35.2379  21.4222  7.525411
  14226.487  14226.470  0.500  0.496051  35.0924  21.3689  7.530730
  14243.234  14243.200  0.500  0.494010  34.9364  21.3173  7.538530
  14260.145  14260.100  0.500  0.492066  34.7596  21.2507  7.535591
  14271.487  14271.460  0.500  0.490677  32.4201  19.848  7.052033

File: Bi-L3-BismuthOxide.xdi
# XDI/1.0 BlueSky/1.10.0 BMM/2023-1.0-py310-tiled
# Beamline.name: BMM (06BM) -- Beamline for Materials Measurement (NIST)
# Beamline.xray_source: NSLS-II three-pole wiggler
# Beamline.collimation: paraboloid mirror, 5 nm Rh on 30 nm Pt
# Beamline.focusing: not in use
# Beamline.harmonic_rejection: flat mirror, Pt stripe, pitch = 7.0 mrad relative to beam
# Beamline.software: Bluesky 1.10.0, Ophyd 1.7.0, DataBroker 2.0.0b13, Python 3.10.8, 2023-1.0-py310-tiled
# Detector.I0: 10 cm N2
# Detector.I1: 25 cm N2
# Detector.I2: 25 cm N2
# Element.symbol: Bi
# Element.edge: L3
# Element.reference: Bi
# Element.reference_material: BiO2
# Facility.name: NSLS-II
# Facility.energy: 3.0
# Facility.current: 399.2
# Facility.mode: top-off
# Facility.GUP: 301027
# Facility.SAF: 310583
# Facility.cycle: 2023-2
# Mono.name: Si(111)
# Mono.d_spacing: 3.13519
# Mono.encoder_resolution: 0.0000050 deg/ct
# Mono.angle_offset: 16.0754 deg
# Mono.scan_mode: pseudo channel cut
# Mono.scan_type: step
# Mono.direction: forward in energy
# Sample.name: BiO2
# Sample.prep: powder on tape
# Sample.x: 109.138 mm
# Sample.y: 153.150 mm
# Sample.SDD_position: 205.000 mm
# Scan.experimenters: Bruce Ravel
# Scan.edge_energy: 13418.6
# Scan.start_time: 2023-05-28T20:33:55
# Scan.end_time: 2023-05-28T20:41:37
# Scan.transient_id: 78994
# Scan.uid: c397426a-9ce3-438d-89a4-edf12d9f0932
# Scan.plot_hint: ln(It/Ir)  --  ln($6/$7)
# Column.1: energy eV
# Column.2: requested_energy eV
# Column.3: measurement_time seconds
# Column.4: xmu
# Column.5: I0 nA
# Column.6: It nA
# Column.7: Ir nA
# ///////////
# Welcome to BMM
# -----------
# energy  requested_energy  measurement_time  xmu  I0  It  Ir
  13218.613  13218.600  0.500  0.702281  45.2171  79.4872  39.3823
  13248.671  13248.600  0.500  0.697740  44.9925  79.148  39.3927
  13278.621  13278.600  0.500  0.693439  44.0656  77.5688  38.7731
  13308.630  13308.600  0.500  0.689277  43.691  76.9685  38.6335
  13338.638  13338.600  0.500  0.685588  43.3882  76.4867  38.5336
  13368.595  13368.600  0.500  0.683097  43.0937  76.0186  38.3933
  13390.529  13390.600  0.500  0.683871  42.862  75.6503  38.1777
  13396.519  13396.600  0.500  0.685256  42.7928  75.5327  38.0655
  13402.538  13402.600  0.500  0.688001  42.7353  75.4412  37.9152
  13408.539  13408.600  0.500  0.693553  42.6808  75.3613  37.6653
  13409.426  13409.500  0.500  0.694568  42.6707  75.3393  37.6161
  13410.337  13410.400  0.500  0.696114  42.6583  75.3255  37.5512
  13411.263  13411.300  0.500  0.697632  42.6505  75.3039  37.4835
  13412.150  13412.200  0.500  0.699535  42.633  75.286  37.4033
  13413.053  13413.100  0.500  0.701628  42.6307  75.2636  37.314
  13413.964  13414.000  0.500  0.704196  42.6123  75.2458  37.2095
  13414.876  13414.900  0.500  0.707194  42.602  75.2274  37.089
  13415.763  13415.800  0.500  0.710601  42.5874  75.2004  36.9496
  13416.683  13416.700  0.500  0.715080  42.5741  75.1806  36.7748
  13417.563  13417.600  0.500  0.720241  42.5701  75.1773  36.5839
  13418.467  13418.500  0.500  0.727006  42.5571  75.1541  36.326
  13419.386  13419.400  0.500  0.735806  42.5387  75.1292  35.9958
  13420.275  13420.300  0.500  0.746861  42.5343  75.1131  35.5925
  13421.179  13421.200  0.500  0.760907  42.5195  75.0991  35.0895
  13422.099  13422.100  0.500  0.776839  42.5032  75.0684  34.5207
  13422.987  13423.000  0.500  0.792713  42.4919  75.0452  33.9666
  13423.892  13423.900  0.500  0.808712  42.4805  75.0169  33.4149
  13424.820  13424.800  0.500  0.824361  42.4638  75.0052  32.8909
  13425.694  13425.700  0.500  0.839719  42.4493  74.978  32.3779
  13426.599  13426.600  0.500  0.858001  42.4312  74.948  31.7786
  13427.511  13427.500  0.500  0.880999  42.4023  74.8988  31.0357
  13428.401  13428.400  0.500  0.909129  42.3599  74.823  30.1443
  13429.298  13429.300  0.500  0.942646  42.331  74.7845  29.1357
  13430.196  13430.200  0.500  0.980085  42.3388  74.787  28.066
  13431.078  13431.100  0.500  1.015088  42.3516  74.8129  27.11
  13431.991  13432.000  0.500  1.047712  42.3465  74.809  26.2385
  13432.897  13432.900  0.500  1.075498  42.3336  74.7862  25.5117
  13433.779  13433.800  0.500  1.098729  42.3202  74.771  24.9208
  13434.678  13434.700  0.500  1.119914  42.3098  74.7496  24.3914
  13435.599  13435.600  0.500  1.139159  42.2923  74.7247  23.9185
  13436.490  13436.500  0.500  1.156254  42.2759  74.6934  23.5032
  13437.388  13437.400  0.500  1.172445  42.2703  74.6791  23.1213
  13438.311  13438.300  0.500  1.187220  42.2554  74.66  22.7764
  13439.202  13439.200  0.500  1.199400  42.2377  74.6336  22.4927
  13440.093  13440.100  0.500  1.209872  42.2315  74.616  22.2532
  13441.007  13441.000  0.500  1.218731  42.2131  74.5964  22.0511
  13441.914  13441.900  0.500  1.226494  42.2023  74.5771  21.8749
  13442.806  13442.800  0.500  1.233143  42.1962  74.5599  21.7249
  13443.595  13443.600  0.500  1.238561  42.181  74.5322  21.5995
  13446.609  13446.610  0.500  1.251783  42.1451  74.4783  21.3004
  13449.815  13449.800  0.500  1.241439  42.2266  74.6246  21.5641
  13453.164  13453.160  0.500  1.218278  42.2175  74.6146  22.0664
  13456.689  13456.680  0.500  1.199537  42.1886  74.5704  22.4706
  13460.381  13460.380  0.500  1.192864  42.1463  74.495  22.5981
  13464.290  13464.250  0.500  1.193011  42.1042  74.4319  22.5757
  13468.303  13468.300  0.500  1.193431  42.0568  74.3586  22.544
  13472.534  13472.510  0.500  1.192968  41.9977  74.2703  22.5276
  13476.933  13476.890  0.500  1.191962  41.9448  74.168  22.5193
  13481.462  13481.450  0.500  1.193182  41.647  73.6511  22.3351
  13486.193  13486.180  0.500  1.200270  41.8709  74.0576  22.2997
  13491.102  13491.080  0.500  1.209878  41.8305  73.987  22.0654
  13496.157  13496.150  0.500  1.214526  41.7817  73.9156  21.9419
  13501.432  13501.390  0.500  1.213815  41.7193  73.8158  21.9279
  13506.806  13506.810  0.500  1.209185  41.6638  73.7201  22.001
  13512.399  13512.390  0.500  1.204318  41.5925  73.6038  22.0735
  13518.149  13518.150  0.500  1.200201  41.5205  73.4871  22.1295
  13524.112  13524.080  0.500  1.196242  41.4377  73.3531  22.1767
  13530.183  13530.180  0.500  1.192912  41.3603  73.2269  22.2124
  13536.493  13536.450  0.500  1.190215  41.1996  72.9593  22.191
  13542.904  13542.890  0.500  1.188912  41.2764  73.0911  22.2601
  13549.530  13549.500  0.500  1.189306  41.2  72.9661  22.2132
  13556.298  13556.290  0.500  1.190273  40.8481  72.3596  22.0073
  13563.283  13563.250  0.500  1.191335  41.0627  72.7467  22.1016
  13570.379  13570.370  0.500  1.190882  40.9765  72.6015  22.0674
  13577.692  13577.670  0.500  1.189486  40.8355  72.371  22.0281
  13585.174  13585.150  0.500  1.188440  40.8311  72.3695  22.0507
  13592.802  13592.790  0.500  1.187212  40.4356  71.6884  21.87
  13600.624  13600.600  0.500  1.185192  40.6917  72.1503  22.0554
  13608.585  13608.590  0.500  1.181768  40.5906  71.9813  22.0792
  13616.765  13616.750  0.500  1.178174  40.5076  71.851  22.1186
  13625.094  13625.070  0.500  1.175325  40.4279  71.7086  22.1378
  13633.594  13633.570  0.500  1.174406  40.3381  71.571  22.1156
  13642.252  13642.250  0.500  1.175046  40.2481  71.4187  22.0544
  13651.109  13651.090  0.500  1.175326  40.0903  71.1523  21.966
  13660.131  13660.100  0.500  1.174260  40.0658  71.1205  21.9796
  13669.305  13669.290  0.500  1.172260  39.9637  70.9541  21.9721
  13678.662  13678.650  0.500  1.170207  39.8667  70.8042  21.9707
  13688.188  13688.170  0.500  1.168913  39.7649  70.6255  21.9436
  13697.883  13697.870  0.500  1.168002  39.6671  70.4719  21.9159
  13707.773  13707.750  0.500  1.166212  39.5647  70.3017  21.9021
  13717.792  13717.790  0.500  1.163315  39.4739  70.1521  21.9189
  13728.031  13728.000  0.500  1.160295  39.3648  69.9837  21.9325
  13738.410  13738.390  0.500  1.157907  39.2587  69.799  21.9269
  13748.953  13748.950  0.500  1.156483  39.1501  69.6286  21.9045
  13759.686  13759.680  0.500  1.154882  39.0354  69.437  21.8792
  13770.585  13770.580  0.500  1.153387  38.919  69.2464  21.8518
  13781.651  13781.650  0.500  1.151305  38.8086  69.0691  21.8413
  13792.910  13792.890  0.500  1.148751  38.6828  68.8528  21.8286
  13804.328  13804.310  0.500  1.146469  38.5682  68.6638  21.8184
  13815.908  13815.890  0.500  1.144244  38.4169  68.4149  21.7877
  13827.674  13827.650  0.500  1.141905  38.3163  68.2439  21.7842
  13839.627  13839.580  0.500  1.139579  38.1964  68.0515  21.7733
  13851.703  13851.680  0.500  1.136971  38.0473  67.8021  21.7502
  13863.967  13863.950  0.500  1.134127  37.913  67.5795  21.7405
  13876.421  13876.390  0.500  1.131307  37.7305  67.263  21.6998
  13889.025  13889.010  0.500  1.128912  37.514  66.8947  21.6327
  13901.821  13901.790  0.500  1.126861  37.3239  66.5742  21.5733
  13914.759  13914.750  0.500  1.124683  37.2325  66.4299  21.5735
  13927.916  13927.880  0.500  1.122006  37.1024  66.2149  21.5613
  13941.200  13941.180  0.500  1.119351  37.0024  66.0489  21.5644
  13954.688  13954.650  0.500  1.116612  36.861  65.8208  21.5489
  13968.306  13968.300  0.500  1.114092  36.6015  65.3686  21.4548
  13982.146  13982.110  0.500  1.111513  36.6768  65.522  21.5607
  13996.134  13996.100  0.500  1.108802  36.5328  65.2836  21.5406
  14010.305  14010.260  0.500  1.106038  36.3863  65.0422  21.5203
  14024.573  14024.590  0.500  1.102859  36.2323  64.7779  21.5011
  14039.078  14039.090  0.500  1.100110  36.0866  64.5344  21.4793
  14053.777  14053.760  0.500  1.097375  35.9276  64.2603  21.4466
  14068.645  14068.600  0.500  1.094567  35.6789  63.8384  21.3657
  14083.658  14083.620  0.500  1.091808  35.5635  63.6509  21.3618
  14098.816  14098.800  0.500  1.088723  35.5094  63.5716  21.4011
  14114.199  14114.160  0.500  1.085698  35.2803  63.1769  21.3327
  14129.738  14129.690  0.500  1.082566  35.2711  63.18  21.4007
  14145.416  14145.390  0.500  1.079618  35.1202  62.9293  21.3787
  14161.287  14161.260  0.500  1.076647  34.8863  62.5253  21.3046
  14177.326  14177.310  0.500  1.073633  34.8467  62.4692  21.3498
  14193.560  14193.520  0.500  1.070385  34.6785  62.1853  21.3219
  14209.938  14209.910  0.500  1.067229  34.5233  61.9327  21.3024
  14226.478  14226.470  0.500  1.064120  34.3584  61.654  21.2726
  14243.225  14243.200  0.500  1.060926  34.1892  61.3657  21.2408
  14260.101  14260.100  0.500  1.057810  33.9753  60.9966  21.179
  14271.469  14271.460  0.500  1.056004  32.2037  57.8277  20.1149