Folder: webxdiviewer/xdidata/Br

Note: xdidata/README.md
# bmm-standards
A pretty webpage for BMM's collection of common XAFS materials

[BMM's common materials collection](./BMM-standards.html)

Plotting of the data will happen soon.

Periodic table adapted from [some guy named Daniel](https://codepen.io/gooseofmusic/pen/PjKdNQ)

[This](https://www.coderstool.com/scss-to-css) is a helpful tool for
dealing with Sassy CSS.

File: Br-K-BromophenolBlue.xdi
# XDI/1.0 BlueSky/1.10.0 BMM/2023-1.0-py310-tiled
# Beamline.name: BMM (06BM) -- Beamline for Materials Measurement (NIST)
# Beamline.xray_source: NSLS-II three-pole wiggler
# Beamline.collimation: paraboloid mirror, 5 nm Rh on 30 nm Pt
# Beamline.focusing: not in use
# Beamline.harmonic_rejection: flat mirror, Pt stripe, pitch = 7.0 mrad relative to beam
# Beamline.software: Bluesky 1.10.0, Ophyd 1.7.0, DataBroker 2.0.0b13, Python 3.10.8, 2023-1.0-py310-tiled
# Detector.I0: 10 cm N2
# Detector.I1: 25 cm N2
# Detector.I2: 25 cm N2
# Element.symbol: Br
# Element.edge: K
# Element.reference: Br
# Element.reference_material: bromophenol blue
# Facility.name: NSLS-II
# Facility.energy: 3.0
# Facility.current: 400.8
# Facility.mode: top-off
# Facility.GUP: 301027
# Facility.SAF: 310583
# Facility.cycle: 2023-2
# Mono.name: Si(111)
# Mono.d_spacing: 3.13519
# Mono.encoder_resolution: 0.0000050 deg/ct
# Mono.angle_offset: 16.0754 deg
# Mono.scan_mode: pseudo channel cut
# Mono.scan_type: step
# Mono.direction: forward in energy
# Sample.name: C19H10Br4O5S
# Sample.prep: powder on Kapton tape
# Sample.x: 109.138 mm
# Sample.y: 153.150 mm
# Sample.SDD_position: 205.000 mm
# Scan.experimenters: Bruce Ravel
# Scan.edge_energy: 13473.7
# Scan.start_time: 2023-05-28T20:55:12
# Scan.end_time: 2023-05-28T21:03:11
# Scan.transient_id: 79008
# Scan.uid: 7f5eb8b4-2991-42f8-9e27-86db1128e904
# Scan.plot_hint: ln(It/Ir)  --  ln($6/$7)
# Column.1: energy eV
# Column.2: requested_energy eV
# Column.3: measurement_time seconds
# Column.4: xmu
# Column.5: I0 nA
# Column.6: It nA
# Column.7: Ir nA
# ///////////
# sample courtesy Alesandra Leri, Marymount Manhatten College
# -----------
# energy  requested_energy  measurement_time  xmu  I0  It  Ir
  13273.667  13273.700  0.500  0.521666  42.3833  74.6049  44.2803
  13303.747  13303.700  0.500  0.518428  41.9646  73.9238  44.0184
  13333.693  13333.700  0.500  0.515328  41.7119  73.5205  43.9141
  13363.714  13363.700  0.500  0.512238  41.5098  73.2128  43.8657
  13393.707  13393.700  0.500  0.509602  41.2276  72.7659  43.713
  13423.735  13423.700  0.500  0.507946  40.9951  72.409  43.5707
  13445.670  13445.700  0.500  0.509139  40.7887  72.0734  43.3171
  13451.663  13451.700  0.500  0.510822  40.7431  72.0131  43.208
  13457.669  13457.700  0.500  0.514139  40.704  71.9433  43.0232
  13463.665  13463.700  0.500  0.521761  40.6261  71.8139  42.6197
  13464.535  13464.600  0.500  0.523612  40.6125  71.7874  42.5252
  13465.437  13465.500  0.500  0.525946  40.6079  71.7864  42.4255
  13466.356  13466.400  0.500  0.528729  40.5979  71.7692  42.2974
  13467.258  13467.300  0.500  0.532437  40.5794  71.745  42.1267
  13468.185  13468.200  0.500  0.536947  40.579  71.7368  41.9324
  13469.088  13469.100  0.500  0.542841  40.5751  71.7308  41.6824
  13469.983  13470.000  0.500  0.550699  40.5449  71.6847  41.3296
  13470.893  13470.900  0.500  0.561033  40.4926  71.5918  40.8517
  13471.773  13471.800  0.500  0.576135  40.508  71.6271  40.2592
  13472.692  13472.700  0.500  0.599968  40.4963  71.6015  39.297
  13473.572  13473.600  0.500  0.639295  40.5014  71.6196  37.7911
  13474.475  13474.500  0.500  0.712904  40.4895  71.5966  35.098
  13475.371  13475.400  0.500  0.848691  40.4817  71.5891  30.6384
  13476.267  13476.300  0.500  1.060880  40.4569  71.5386  24.7632
  13477.171  13477.200  0.500  1.241487  40.4254  71.4994  20.6601
  13478.106  13478.100  0.500  1.243963  40.3934  71.4386  20.5914
  13479.019  13479.000  0.500  1.138800  40.396  71.4498  22.8784
  13479.907  13479.900  0.500  1.077785  40.3864  71.4285  24.3106
  13480.795  13480.800  0.500  1.091930  40.2975  71.2743  23.9174
  13481.700  13481.700  0.500  1.155315  40.1488  71.0187  22.3679
  13482.597  13482.600  0.500  1.229431  40.1458  71.0106  20.7677
  13483.501  13483.500  0.500  1.280902  40.2716  71.2347  19.788
  13484.398  13484.400  0.500  1.300840  40.3312  71.3404  19.4262
  13485.272  13485.300  0.500  1.298270  40.3281  71.3381  19.4756
  13486.201  13486.200  0.500  1.281674  40.3599  71.4013  19.819
  13487.098  13487.100  0.500  1.256109  40.3481  71.3795  20.326
  13488.019  13488.000  0.500  1.227992  40.3458  71.3735  20.9039
  13488.909  13488.900  0.500  1.204787  40.3585  71.3956  21.4013
  13489.799  13489.800  0.500  1.187434  40.3373  71.361  21.7653
  13490.696  13490.700  0.500  1.174960  40.3156  71.3265  22.0278
  13491.602  13491.600  0.500  1.166908  40.2902  71.2835  22.1926
  13492.508  13492.500  0.500  1.163948  40.2597  71.2255  22.2402
  13493.375  13493.400  0.500  1.165989  40.2498  71.2094  22.1899
  13494.297  13494.300  0.500  1.171488  40.2388  71.1949  22.0637
  13495.203  13495.200  0.500  1.177919  40.257  71.218  21.9294
  13496.109  13496.100  0.500  1.183382  40.2495  71.2196  21.8104
  13497.016  13497.000  0.500  1.187459  40.2276  71.1832  21.7105
  13497.907  13497.900  0.500  1.189737  40.2367  71.1974  21.6655
  13498.702  13498.700  0.500  1.190283  40.1957  71.1249  21.6316
  13501.686  13501.710  0.500  1.175118  40.2082  71.1508  21.9701
  13504.918  13504.900  0.500  1.151347  40.1606  71.0642  22.4712
  13508.247  13508.260  0.500  1.140699  40.2436  71.2172  22.7607
  13511.793  13511.780  0.500  1.143217  40.1996  71.1527  22.6829
  13515.485  13515.480  0.500  1.161705  40.1648  71.0909  22.248
  13519.378  13519.350  0.500  1.181089  40.117  71.0174  21.7984
  13523.401  13523.400  0.500  1.183291  40.0711  70.9416  21.7272
  13527.642  13527.610  0.500  1.175348  40.0217  70.8614  21.8757
  13531.982  13531.990  0.500  1.166830  40.0093  70.836  22.055
  13536.565  13536.550  0.500  1.161056  39.8709  70.6022  22.1095
  13541.254  13541.280  0.500  1.157174  39.8042  70.4955  22.1619
  13546.196  13546.180  0.500  1.155420  39.89  70.6579  22.252
  13551.221  13551.250  0.500  1.153633  39.8407  70.577  22.2662
  13556.467  13556.490  0.500  1.150034  39.4471  69.8871  22.1281
  13561.901  13561.910  0.500  1.144723  39.771  70.4689  22.4311
  13567.565  13567.490  0.500  1.139116  39.5506  70.0831  22.4337
  13573.242  13573.250  0.500  1.136434  39.5543  70.1002  22.4995
  13579.149  13579.180  0.500  1.135704  39.6174  70.2207  22.5546
  13585.231  13585.280  0.500  1.135909  39.5519  70.1104  22.5146
  13591.503  13591.550  0.500  1.135368  39.3935  69.8441  22.4412
  13597.943  13597.990  0.500  1.132964  39.4214  69.8971  22.5123
  13604.591  13604.600  0.500  1.130776  39.3595  69.8012  22.5306
  13611.351  13611.390  0.500  1.131281  39.3132  69.7304  22.4964
  13618.320  13618.350  0.500  1.133642  39.245  69.6136  22.4058
  13625.450  13625.470  0.500  1.134606  39.1918  69.5289  22.3569
  13632.759  13632.770  0.500  1.132593  39.1289  69.4286  22.3697
  13640.262  13640.250  0.500  1.128012  39.0632  69.3251  22.4389
  13647.887  13647.890  0.500  1.123936  38.9971  69.2145  22.4946
  13655.716  13655.700  0.500  1.121083  38.9477  69.1456  22.5364
  13663.677  13663.690  0.500  1.118064  38.8705  69.0142  22.5616
  13671.859  13671.850  0.500  1.114778  38.8058  68.9139  22.6029
  13680.174  13680.170  0.500  1.112169  38.7287  68.7849  22.6195
  13688.679  13688.670  0.500  1.110442  38.6436  68.6383  22.6104
  13697.351  13697.350  0.500  1.109042  38.5805  68.5454  22.6114
  13706.197  13706.190  0.500  1.108086  38.5024  68.4177  22.5908
  13715.195  13715.200  0.500  1.107590  38.4216  68.2875  22.5591
  13724.411  13724.390  0.500  1.105531  38.355  68.1804  22.5701
  13733.754  13733.750  0.500  1.102277  38.2683  68.0471  22.5994
  13743.259  13743.270  0.500  1.099530  38.1922  67.9178  22.6185
  13752.958  13752.970  0.500  1.098366  38.1006  67.7744  22.597
  13762.870  13762.850  0.500  1.096792  38.0173  67.6355  22.5862
  13772.930  13772.890  0.500  1.093887  37.9316  67.4947  22.6048
  13783.103  13783.100  0.500  1.090798  37.839  67.3417  22.6233
  13793.491  13793.490  0.500  1.088218  37.7596  67.2238  22.6421
  13804.070  13804.050  0.500  1.085311  37.6561  67.0448  22.6475
  13814.815  13814.780  0.500  1.081884  37.5654  66.8988  22.6758
  13825.728  13825.680  0.500  1.078996  37.6082  66.9948  22.774
  13836.758  13836.750  0.500  1.076634  37.5072  66.8222  22.769
  13847.974  13847.990  0.500  1.074363  37.394  66.6371  22.7576
  13859.409  13859.410  0.500  1.072023  37.3076  66.5004  22.7641
  13871.007  13870.990  0.500  1.069402  37.1714  66.2757  22.7467
  13882.775  13882.750  0.500  1.066950  36.9372  65.8688  22.6626
  13894.707  13894.680  0.500  1.063889  36.6441  65.3551  22.5548
  13906.821  13906.780  0.500  1.060546  36.6238  65.3382  22.6244
  13919.065  13919.050  0.500  1.057505  36.4596  65.0588  22.5963
  13931.518  13931.490  0.500  1.054298  36.4264  65.0228  22.6563
  13944.138  13944.110  0.500  1.051249  36.3276  64.8594  22.6684
  13956.926  13956.890  0.500  1.048098  36.2095  64.6676  22.6727
  13969.866  13969.850  0.500  1.045172  36.0009  64.304  22.6113
  13983.017  13982.980  0.500  1.042245  36.0512  64.4084  22.7144
  13996.288  13996.280  0.500  1.039016  35.9244  64.197  22.7131
  14009.773  14009.750  0.500  1.035695  35.8295  64.0494  22.7362
  14023.439  14023.400  0.500  1.032778  35.7049  63.8418  22.7287
  14037.244  14037.210  0.500  1.029788  35.6004  63.6683  22.7348
  14051.214  14051.200  0.500  1.026781  35.4838  63.4781  22.7352
  14065.351  14065.360  0.500  1.023661  35.293  63.1499  22.6883
  14079.707  14079.690  0.500  1.020320  35.3572  63.2798  22.8111
  14094.214  14094.190  0.500  1.017176  35.2059  63.0291  22.7922
  14108.891  14108.860  0.500  1.013821  34.8981  62.49  22.6732
  14123.711  14123.700  0.500  1.010288  34.9944  62.6841  22.8242
  14138.756  14138.720  0.500  1.007111  34.8554  62.4473  22.8103
  14153.929  14153.900  0.500  1.003865  34.6897  62.1756  22.7849
  14169.311  14169.260  0.500  1.000328  34.169  61.2571  22.5278
  14184.832  14184.790  0.500  0.997383  34.552  61.9551  22.8517
  14200.546  14200.490  0.500  0.994237  34.4156  61.7331  22.8416
  14216.383  14216.360  0.500  0.990876  34.2772  61.5041  22.8335
  14232.469  14232.410  0.500  0.987499  34.1428  61.2756  22.8256
  14248.636  14248.620  0.500  0.984347  34.023  61.0791  22.8242
  14265.044  14265.010  0.500  0.980848  33.8248  60.734  22.7748
  14281.643  14281.570  0.500  0.977448  33.786  60.684  22.8336
  14298.360  14298.300  0.500  0.974051  33.6286  60.4267  22.8141
  14315.261  14315.200  0.500  0.970572  33.4889  60.1864  22.8026
  14326.592  14326.560  0.500  0.968398  33.4176  60.0688  22.8076