Folder: webxdiviewer/xdidata/Ce (part 2)

File: Ce-L3-CaCe2Ti4O12.xdi
# XDI/1.0 BlueSky/1.10.0 BMM/2023-1.0-py310-tiled
# Beamline.name: BMM (06BM) -- Beamline for Materials Measurement (NIST)
# Beamline.xray_source: NSLS-II three-pole wiggler
# Beamline.collimation: paraboloid mirror, 5 nm Rh on 30 nm Pt
# Beamline.focusing: not in use
# Beamline.harmonic_rejection: flat mirror, Si stripe, pitch = 7.0 mrad relative to beam
# Beamline.software: Bluesky 1.10.0, Ophyd 1.7.0, DataBroker 2.0.0b13, Python 3.10.8, 2023-1.0-py310-tiled
# Detector.I0: 10 cm N2
# Detector.I1: 25 cm N2
# Detector.I2: 25 cm N2
# Detector.fluorescence: SII Vortex ME4 (4-element silicon drift)
# Detector.deadtime_correction: Xspress3
# Element.symbol: Ce
# Element.edge: L3
# Element.reference: Ce
# Element.reference_material: CeO2
# Facility.name: NSLS-II
# Facility.energy: 3.0
# Facility.current: 400.2
# Facility.mode: top-off
# Facility.GUP: 123456
# Facility.SAF: 301027
# Facility.cycle: 2023-2
# Mono.name: Si(111)
# Mono.d_spacing: 3.13519
# Mono.encoder_resolution: 0.0000050 deg/ct
# Mono.angle_offset: 16.0754 deg
# Mono.scan_mode: pseudo channel cut
# Mono.scan_type: step
# Mono.direction: forward in energy
# Sample.name: CaCe2Ti4O12
# Sample.prep: Powder in PEG pellet
# Sample.x: 142.329 mm
# Sample.y: 114.126 mm
# Sample.SDD_position: 45.000 mm
# Scan.experimenters: Bruce Ravel
# Scan.edge_energy: 5723.4
# Scan.start_time: 2023-05-06T10:53:50
# Scan.end_time: 2023-05-06T10:59:29
# Scan.transient_id: 74743
# Scan.uid: b79e1f41-982a-4859-b714-89174d3c2845
# Scan.plot_hint: (Ce1+Ce2+Ce3+Ce4)/I0  --  ($8+$9+$10+$11)/$5
# Column.1: energy eV
# Column.2: requested_energy eV
# Column.3: measurement_time seconds
# Column.4: xmu
# Column.5: I0 nA
# Column.6: It nA
# Column.7: Ir nA
# Column.8: Ce1
# Column.9: Ce2
# Column.10: Ce3
# Column.11: Ce4
# ///////////
# sample courtesy Martin Stennett, University of Sheffield
# -----------
# energy  requested_energy  measurement_time  xmu  I0  It  Ir  Ce1  Ce2  Ce3  Ce4
  5523.404  5523.400  0.500  159.487  109.103  1.293650  0.096101  4317.13  4473.76  4319.81  4289.78
  5553.415  5553.400  0.500  160.49  110.134  1.411712  0.109067  4306.76  4563.84  4377.9  4426.9
  5583.408  5583.400  0.500  162.516  110.97  1.533169  0.123394  4504.64  4635.9  4488.98  4404.93
  5613.407  5613.400  0.500  168.357  111.503  1.660441  0.139010  4604.96  4910.11  4719.18  4538.05
  5643.388  5643.400  0.500  169.229  111.83  1.789683  0.155822  4675.32  4915.16  4731.24  4603.12
  5673.395  5673.400  0.500  177.914  112.026  1.925481  0.173975  4891  5132.3  4936.39  4971.34
  5695.395  5695.400  0.500  188.266  111.995  2.019078  0.187334  5196.28  5448.5  5316.6  5123.46
  5701.389  5701.400  0.500  195.739  112.016  2.042065  0.190818  5382.84  5698.65  5404.68  5439.65
  5707.401  5707.400  0.500  208.292  111.998  2.057333  0.193490  5706.78  6019.82  5782.9  5818.88
  5713.397  5713.400  0.500  234.778  111.968  2.050804  0.194185  6473.66  6838.3  6502.35  6473.28
  5714.887  5714.900  0.500  250.63  111.995  2.040384  0.193319  6885.54  7204.53  7037.66  6941.58
  5716.389  5716.400  0.500  277.272  111.796  2.016951  0.191277  7650.86  7980.94  7595.98  7770.02
  5717.892  5717.900  0.500  315.017  111.672  1.970015  0.186827  8529.57  9317.72  8664.62  8666.57
  5719.394  5719.400  0.500  375.373  111.949  1.910640  0.181052  10247  10868.7  10548.9  10357.8
  5720.893  5720.900  0.500  461.358  111.943  1.815545  0.171749  12694.5  13465.5  12710.5  12775.5
  5722.394  5722.400  0.500  632.423  111.98  1.620550  0.153174  17390.6  18180.2  17809.6  17438.3
  5723.897  5723.900  0.500  973.299  111.95  1.261597  0.118572  26718.8  28298.7  27339.1  26604.3
  5725.394  5725.400  0.500  1380.07  111.928  0.882752  0.081846  35159.8  40779.7  39725.3  38803.2
  5726.893  5726.900  0.500  1536.57  111.938  0.783754  0.070890  42354.9  44047  43207.3  42391.3
  5728.402  5728.400  0.500  1306.47  111.956  0.950632  0.084806  35957.5  37490.7  36958.9  35860.7
  5729.899  5729.900  0.500  1055.11  111.946  1.173846  0.103709  29074.1  30429.1  29561.5  29050
  5731.398  5731.400  0.500  870.379  111.926  1.364369  0.119708  24035.5  24843.3  24353.8  24185.6
  5732.903  5732.900  0.500  732.531  111.879  1.513106  0.134004  20238.9  20958.7  20697.3  20059.7
  5734.399  5734.400  0.500  666.294  111.882  1.598831  0.143035  18342  19352.1  18690.3  18161.9
  5735.907  5735.900  0.500  652.883  111.869  1.617018  0.144583  18071.1  18953.8  18012.8  17999.7
  5737.404  5737.400  0.500  677.572  111.846  1.598037  0.142220  18441  19760.6  18956.7  18625.3
  5738.901  5738.900  0.500  693.453  111.848  1.583667  0.141182  19097.1  20180.9  19394  18889.6
  5740.405  5740.400  0.500  706.162  111.836  1.580762  0.142025  19409.3  20552.3  19705.4  19307
  5741.900  5741.900  0.500  709.094  111.824  1.581927  0.144263  19483.9  20681.4  19745.3  19383.1
  5743.402  5743.400  0.500  714.364  111.801  1.591110  0.146952  19589.1  20531.2  19983.7  19762.3
  5744.900  5744.900  0.500  708.69  111.792  1.600707  0.148952  19430.9  20463.3  19912.6  19419.1
  5746.400  5746.400  0.500  705.142  111.774  1.607506  0.150298  19247.6  20454.2  19837.6  19277
  5747.901  5747.900  0.500  709.851  111.767  1.609437  0.151055  19250.3  20497.2  19761.4  19829.3
  5750.402  5750.390  0.500  727.598  111.729  1.596092  0.150556  20077.3  20999.9  20216.9  19999.7
  5753.520  5753.520  0.500  771.464  111.681  1.560583  0.147867  21206.9  22392.2  21398.1  21160.8
  5756.825  5756.820  0.500  801.565  111.634  1.538737  0.145894  21809.5  23193.9  22422.1  22056.6
  5760.300  5760.290  0.500  795.535  111.599  1.555787  0.147761  21806.2  22726.5  22333.8  21914.5
  5763.942  5763.930  0.500  773.166  111.54  1.600987  0.152389  21070.7  22127  21491.1  21550.1
  5767.744  5767.740  0.500  748.021  111.515  1.644848  0.156421  20501.1  21375.2  21033.8  20505.2
  5771.737  5771.730  0.500  733.374  111.479  1.674200  0.160087  19879.3  21237.1  20551.3  20087.9
  5775.902  5775.890  0.500  726.96  111.419  1.696971  0.163077  19627.1  21007.9  20343.2  20018.8
  5780.222  5780.210  0.500  724.985  111.366  1.720715  0.166579  19922.9  20805.9  20082.9  19926.8
  5784.718  5784.710  0.500  727.855  111.309  1.741572  0.169743  19949.9  20890.8  20307.2  19868.6
  5789.391  5789.380  0.500  736.364  111.252  1.744413  0.171339  20099.1  20994.1  20756.6  20071.9
  5794.243  5794.230  0.500  767.554  111.167  1.724603  0.170431  21054.7  22059  21437.4  20775.7
  5799.249  5799.240  0.500  790.061  111.082  1.715992  0.170879  21695.2  22511.4  21743.7  21811.6
  5804.435  5804.430  0.500  788.671  110.994  1.744488  0.174654  21491.3  22575.3  21957.7  21513.3
  5809.792  5809.780  0.500  774.932  110.91  1.783659  0.179191  21169.6  22074.1  21577.5  21126
  5815.313  5815.310  0.500  766.436  110.765  1.815639  0.183421  20866.6  21926.8  21117.1  20983.9
  5821.018  5821.010  0.500  763.19  110.647  1.843790  0.187206  20888.1  21695.8  21032.2  20828.8
  5826.891  5826.880  0.500  771.421  110.522  1.864115  0.190316  20846.2  22237.1  21211.1  20964.9
  5832.929  5832.920  0.500  773.851  110.318  1.876740  0.193066  21073.5  21999  21476.4  20820.8
  5839.146  5839.140  0.500  791.589  110.11  1.885925  0.195202  21364.7  22652.6  21667.5  21477.3
  5845.525  5845.520  0.500  805.115  109.84  1.896238  0.197839  21577.2  22990.1  22127.2  21739.8
  5852.088  5852.080  0.500  807.239  109.526  1.914761  0.201334  22008.5  22762.9  21998  21644.7
  5858.817  5858.810  0.500  808.351  109.11  1.942266  0.205959  21734.6  22779.9  21903  21781.8
  5865.717  5865.710  0.500  793.761  108.407  1.980564  0.211720  21379.8  21962.1  21498.5  21209.2
  5872.786  5872.780  0.500  854.626  87.1709  1.617127  0.174305  20815.5  18331.2  17945.6  17406.2
  5880.023  5880.020  0.500  810.849  109.088  2.039533  0.221241  21969  22832  22264.3  21388.6
  5887.446  5887.440  0.500  821.08  108.4  2.046873  0.223900  22069.4  22916.1  22405.7  21613.9
  5895.025  5895.020  0.500  825.635  108.026  2.073154  0.228642  21837.8  23000.1  22425.5  21926.1
  5902.789  5902.780  0.500  819.098  107.297  2.096681  0.233089  21669.3  22586.8  22075.3  21555.7
  5910.733  5910.710  0.500  819.119  106.116  2.115769  0.237007  21405.1  22458.5  21652.7  21405.4
  5918.823  5918.810  0.500  815.751  106.034  2.160983  0.244260  21170.3  22354.3  21618.6  21354.4
  5927.101  5927.080  0.500  824.854  105.425  2.181670  0.249109  21399.9  22531.6  21787.8  21241.2
  5935.541  5935.520  0.500  836.251  105.463  2.209582  0.254854  21619.8  22672.8  22169.2  21731.8
  5944.131  5944.140  0.500  853.637  98.058  2.079093  0.242031  20688.7  21564.9  20999.5  20452.9
  5952.914  5952.920  0.500  856.389  104.334  2.254090  0.264474  21961.2  23007  22391.5  21991.1
  5961.883  5961.880  0.500  854.442  103.095  2.272237  0.269026  21665.3  22933  22054.2  21436.6
  5971.002  5971.010  0.500  856.603  101.9  2.294784  0.274553  21364.3  22763.6  21949.7  21210.1
  5980.298  5980.310  0.500  860.981  100.535  2.307956  0.278739  21111.7  22374.4  21733.6  21339.2
  5989.791  5989.780  0.500  872.175  82.8606  1.937711  0.237096  17887.7  18713.8  17982.8  17684.6
  5999.418  5999.420  0.500  870.253  99.3703  2.363372  0.291132  21351.5  22473.3  21713.6  20938.9
  6009.230  6009.240  0.500  880.264  97.8877  2.371211  0.294861  21223.7  22159  21577.3  21207
  6019.211  6019.220  0.500  884.725  96.5403  2.383670  0.299539  21030.3  22050.7  21503.1  20827.5
  6029.370  6029.380  0.500  885.421  95.2168  2.399132  0.304977  20794.4  21802.5  20997.7  20712.5
  6039.696  6039.710  0.500  891.511  93.8391  2.415682  0.310344  20686.9  21546.3  20902.4  20523
  6050.221  6050.210  0.500  901.309  92.5056  2.430286  0.315359  20554.8  21648.1  20767.3  20405.9
  6060.869  6060.880  0.500  907.042  90.8626  2.435268  0.319284  20362.7  21322.8  20360.9  20369.8
  6071.703  6071.720  0.500  910.948  89.4351  2.444928  0.323924  20184.4  21076.4  20348.6  19861.2
  6082.727  6082.740  0.500  910.841  87.9922  2.459132  0.329734  19758.5  20649.1  19954.3  19785
  6093.906  6093.920  0.500  924.01  86.5173  2.466449  0.334442  19822.8  20832.1  19750  19537.8
  6105.261  6105.280  0.500  922.831  85.0079  2.476423  0.339491  19518.6  20235.4  19595.6  19098.3
  6116.791  6116.810  0.500  931.394  83.4273  2.486163  0.344236  19243.9  20115.3  19493.4  18851
  6128.492  6128.510  0.500  940.136  81.7395  2.490434  0.348824  18894  20187.3  19383.4  18381.6
  6140.368  6140.380  0.500  938.003  79.9396  2.488094  0.352429  18637  19338.5  18797.8  18210.3
  6152.415  6152.430  0.500  935.22  77.8058  2.462560  0.352639  18089.2  18732  18192.3  17751.9

File: Ce-L3-Ce2SiO7.xdi
# XDI/1.0 BlueSky/1.10.0 BMM/2023-1.0-py310-tiled
# Beamline.name: BMM (06BM) -- Beamline for Materials Measurement (NIST)
# Beamline.xray_source: NSLS-II three-pole wiggler
# Beamline.collimation: paraboloid mirror, 5 nm Rh on 30 nm Pt
# Beamline.focusing: not in use
# Beamline.harmonic_rejection: flat mirror, Si stripe, pitch = 7.0 mrad relative to beam
# Beamline.software: Bluesky 1.10.0, Ophyd 1.7.0, DataBroker 2.0.0b13, Python 3.10.8, 2023-1.0-py310-tiled
# Detector.I0: 10 cm N2
# Detector.I1: 25 cm N2
# Detector.I2: 25 cm N2
# Detector.fluorescence: SII Vortex ME4 (4-element silicon drift)
# Detector.deadtime_correction: Xspress3
# Element.symbol: Ce
# Element.edge: L3
# Element.reference: Ce
# Element.reference_material: CeO2
# Facility.name: NSLS-II
# Facility.energy: 3.0
# Facility.current: 399.7
# Facility.mode: top-off
# Facility.GUP: 123456
# Facility.SAF: 301027
# Facility.cycle: 2023-2
# Mono.name: Si(111)
# Mono.d_spacing: 3.13519
# Mono.encoder_resolution: 0.0000050 deg/ct
# Mono.angle_offset: 16.0754 deg
# Mono.scan_mode: pseudo channel cut
# Mono.scan_type: step
# Mono.direction: forward in energy
# Sample.name: Ce2SiO7
# Sample.prep: Powder in PEG pellet
# Sample.x: 142.329 mm
# Sample.y: 114.126 mm
# Sample.SDD_position: 45.000 mm
# Scan.experimenters: Bruce Ravel
# Scan.edge_energy: 5723.4
# Scan.start_time: 2023-05-06T11:00:13
# Scan.end_time: 2023-05-06T11:05:54
# Scan.transient_id: 74749
# Scan.uid: 6b3cb612-6d4e-4f77-87d1-a0faeda308f1
# Scan.plot_hint: (Ce1+Ce2+Ce3+Ce4)/I0  --  ($8+$9+$10+$11)/$5
# Column.1: energy eV
# Column.2: requested_energy eV
# Column.3: measurement_time seconds
# Column.4: xmu
# Column.5: I0 nA
# Column.6: It nA
# Column.7: Ir nA
# Column.8: Ce1
# Column.9: Ce2
# Column.10: Ce3
# Column.11: Ce4
# ///////////
# sample courtesy Martin Stennett, University of Sheffield
# -----------
# energy  requested_energy  measurement_time  xmu  I0  It  Ir  Ce1  Ce2  Ce3  Ce4
  5523.408  5523.400  0.500  3.137447  109.018  2.036670  0.150612  76.0074  94.0093  89.011  83.0094
  5553.412  5553.400  0.500  3.051095  110.136  2.210847  0.170164  96.0092  90.0085  77.0089  73.008
  5583.407  5583.400  0.500  3.587841  111.221  2.395381  0.192230  84.0085  107.011  110.014  98.0115
  5613.405  5613.400  0.500  3.659716  111.77  2.579913  0.215242  107.011  89.0093  120.015  93.0113
  5643.388  5643.400  0.500  6.227114  112.104  2.765708  0.239890  160.017  198.022  165.021  175.022
  5673.397  5673.400  0.500  11.8315  112.257  2.953844  0.266319  325.038  339.039  328.045  336.044
  5695.396  5695.400  0.500  29.0814  112.217  3.074996  0.284846  809.099  847.103  823.12  784.11
  5701.400  5701.400  0.500  41.0182  112.234  3.096039  0.288660  1111.14  1159.15  1166.18  1167.17
  5707.399  5707.400  0.500  65.4692  112.207  3.097653  0.290791  1881.26  1923.26  1742.28  1799.28
  5713.397  5713.400  0.500  125.264  112.199  3.037746  0.286828  3384.56  3584.59  3600.69  3484.64
  5714.888  5714.900  0.500  154.519  112.255  2.994703  0.283143  4344.99  4510.8  4276.86  4212.8
  5716.387  5716.400  0.500  200.677  112.218  2.923387  0.276453  5559.86  5921.17  5552.23  5486.17
  5717.891  5717.900  0.500  273.157  112.216  2.801815  0.265078  7651.22  8035.81  7464.88  7500.83
  5719.393  5719.400  0.500  375.696  112.207  2.631917  0.248977  10234.8  10871.9  10619.1  10430
  5720.893  5720.900  0.500  515.825  112.198  2.415704  0.228020  14279.4  15135.1  14355.2  14105
  5722.393  5722.400  0.500  775.726  112.186  2.028740  0.191349  21331.2  22702.1  21632.3  21359.9
  5723.898  5723.900  0.500  1257.89  112.176  1.410154  0.132267  34644.4  36791.1  34824  34844.8
  5725.391  5725.400  0.500  1700.18  112.17  0.954206  0.088121  46733.4  49620.8  47719.9  46635.6
  5726.895  5726.900  0.500  1847.24  112.193  0.825724  0.074311  50975.2  53673.7  51949.2  50650.3
  5728.400  5728.400  0.500  1677.4  112.234  0.958687  0.085053  46425.5  48788.2  47054.8  45992.4
  5729.899  5729.900  0.500  1404.57  112.228  1.220865  0.107263  38937  40882.3  39313.7  38499.7
  5731.399  5731.400  0.500  1185.4  112.223  1.465567  0.128170  32947.1  34320.1  33299.6  32461.8
  5732.901  5732.900  0.500  1031.3  112.224  1.653342  0.145796  28897.6  29650.3  29040.9  28148.2
  5734.404  5734.400  0.500  943.564  112.22  1.786001  0.159109  26304.7  27427.2  26221.4  25933
  5735.904  5735.900  0.500  897.612  112.206  1.857905  0.165463  24904.2  26160  24987.3  24665.9
  5737.405  5737.400  0.500  887.089  112.171  1.879113  0.166714  24494.3  25789.7  24818  24403.6
  5738.899  5738.900  0.500  881.921  112.208  1.890229  0.167930  24188.2  25791.6  24647.8  24331.4
  5740.406  5740.400  0.500  886.649  112.198  1.897922  0.170165  24603.8  25889.6  24652.8  24334.5
  5741.900  5741.900  0.500  888.301  112.229  1.910158  0.173359  24782.7  25995.8  24653.9  24260.5
  5743.403  5743.400  0.500  876.127  112.197  1.921975  0.177061  24414.7  25579.5  24362.6  23942.3
  5744.898  5744.900  0.500  878.812  112.185  1.932421  0.179501  24428.8  25503.3  24514.6  24143.2
  5746.401  5746.400  0.500  882.993  112.137  1.933765  0.180361  24401.1  25653.4  24797.9  24164.2
  5747.901  5747.900  0.500  895.033  112.136  1.925174  0.180183  24605.8  26060.9  25060.3  24638.8
  5750.402  5750.390  0.500  939.488  112.041  1.879879  0.176952  26242.2  27516.1  26063.2  25439.6
  5753.527  5753.520  0.500  1002.26  111.973  1.806763  0.170572  27516  29254.9  28217.3  27238.5
  5756.832  5756.820  0.500  1046.16  111.884  1.758833  0.166252  29090.5  30248.7  29139.1  28570.5
  5760.298  5760.290  0.500  1048.1  111.776  1.762913  0.166802  29088.5  30197.9  29215.3  28649.8
  5763.944  5763.930  0.500  1017.77  111.695  1.827629  0.173293  28629.7  29477.1  28196.4  27375.6
  5767.740  5767.740  0.500  967.316  111.523  1.903635  0.180639  26752.4  27697.5  27155.2  26272.4
  5771.737  5771.730  0.500  951.478  111.432  1.944517  0.185320  26306.3  27620.1  26278.3  25820.9
  5775.894  5775.890  0.500  954.529  111.336  1.963830  0.188054  26448.4  27411  26651.6  25761.9
  5780.218  5780.210  0.500  949.535  111.233  1.979926  0.191252  26063.1  27444.3  26274.5  25838
  5784.715  5784.710  0.500  964.255  111.142  1.994614  0.194085  26447.5  28029.6  26654.9  26037.3
  5789.388  5789.380  0.500  975.265  111.428  2.000088  0.195894  26753  28239.8  27156.2  26522.6
  5794.236  5794.230  0.500  984.795  111.316  2.001744  0.197416  26864.1  28617.4  27532.8  26609
  5799.245  5799.240  0.500  989.213  111.178  2.008481  0.199270  27169.1  28521.1  27268.4  27020.3
  5804.440  5804.430  0.500  1007.06  111.102  2.018962  0.201559  27840  28912.7  27670  27462.7
  5809.788  5809.780  0.500  1013.44  110.937  2.039526  0.204441  27772.9  29121.8  28367.5  27165.4
  5815.316  5815.310  0.500  1014.55  110.824  2.061053  0.207563  27625.9  29599.2  27865.1  27346.4
  5821.018  5821.010  0.500  1019.97  110.634  2.089430  0.211562  27885.9  29546.3  28017.3  27393.8
  5826.890  5826.880  0.500  1013.05  110.47  2.111685  0.214788  27539.9  29115.8  27822  27434.6
  5832.931  5832.920  0.500  1014.27  110.288  2.132634  0.218626  27982.3  29087.7  27667.9  27123.4
  5839.145  5839.140  0.500  1021.26  110.053  2.155422  0.222742  27787.4  29164.1  28152.4  27289.7
  5845.522  5845.520  0.500  1025.12  109.82  2.171535  0.226229  28103.5  29078  27953.4  27443.8
  5852.082  5852.080  0.500  1041.92  109.525  2.186038  0.229373  28024.9  29868.6  28461.6  27761
  5858.818  5858.810  0.500  1037.94  109.109  2.208453  0.233577  27952.7  29554.2  28112.7  27628
  5865.717  5865.710  0.500  1049.82  108.41  2.226959  0.237583  27985.7  29436.2  28464.6  27924.1
  5872.784  5872.780  0.500  1062.89  87.2943  1.818552  0.195673  22994.1  24182.8  23049  22558.6
  5880.028  5880.020  0.500  1056.01  109.141  2.300944  0.249297  28719.4  29733.6  28791  28010.3
  5887.446  5887.440  0.500  1061.13  108.404  2.318695  0.253292  28409.1  29784.5  28867.3  27970.3
  5895.025  5895.020  0.500  1061.74  107.806  2.340800  0.257794  28354.8  29718.6  28463  27925.3
  5902.789  5902.780  0.500  1066.55  107.099  2.365335  0.262443  28182  29964.7  28366.6  27713
  5910.723  5910.710  0.500  1071.05  105.932  2.377202  0.265908  28264.3  29256.2  28212.7  27725.1
  5918.817  5918.810  0.500  1044.4  105.899  2.410267  0.271970  28261.7  25947.7  28382.6  28008.3
  5927.102  5927.080  0.500  1081.5  105.276  2.432042  0.277261  28075.1  29637.6  28423  27720.3
  5935.541  5935.520  0.500  1086.94  105.339  2.470761  0.284270  28274.1  29735.5  28482.7  28005.3
  5944.138  5944.140  0.500  1100.46  97.9445  2.331536  0.270783  26773.9  28257.9  26745  26007.4
  5952.926  5952.920  0.500  1108.71  104.27  2.518857  0.295402  28778.6  30104  28736.2  27986.4
  5961.872  5961.880  0.500  1114.37  103.058  2.534121  0.299716  28232.9  30081  28573.9  27956.4
  5971.002  5971.010  0.500  1116.02  101.916  2.550203  0.304529  28266  29575.3  28275.6  27623
  5980.304  5980.310  0.500  1127.37  100.5  2.559618  0.308967  27914.3  29474.1  28243.4  27668.9
  5989.773  5989.780  0.500  1286.99  82.8818  2.146122  0.262194  27383  28778.5  27376.7  23130.1
  5999.432  5999.420  0.500  1138.77  99.4513  2.619613  0.322045  27969.1  29578.3  28242.6  27461.9
  6009.227  6009.240  0.500  1141.16  97.9406  2.626784  0.326451  27485.8  29208.1  27831.9  27240.5
  6019.226  6019.220  0.500  1149.55  96.625  2.639770  0.331446  27287.8  28533.2  27667.7  27586.5
  6029.393  6029.380  0.500  1162.18  95.3067  2.647685  0.336007  27413.3  28909.6  27604.7  26836
  6039.696  6039.710  0.500  1170.54  93.9229  2.657982  0.341057  27019.2  28453.1  27412.4  27056
  6050.204  6050.210  0.500  1174.51  92.5919  2.670995  0.346641  27157.7  28057.8  27029  26505.5
  6060.869  6060.880  0.500  1177.41  90.9379  2.674955  0.350618  26556.9  27927.4  26556.7  26030.2
  6071.715  6071.720  0.500  1184.3  89.499  2.686127  0.355815  25928.6  27746.4  26385.3  25933
  6082.723  6082.740  0.500  1193.68  88.0437  2.692982  0.360787  25816.8  27464.1  26206.2  25608.7
  6093.917  6093.920  0.500  1192.38  86.5976  2.700116  0.365915  25449.8  26768.6  25812.8  25226.3
  6105.269  6105.280  0.500  1204.56  85.0554  2.705174  0.370916  25138.9  26794.4  25363.5  25157.2
  6116.799  6116.810  0.500  1213.33  83.4505  2.709637  0.375341  25055.3  26235.9  25225.2  24736.8
  6128.494  6128.510  0.500  1215.18  81.7687  2.710896  0.379540  24625.6  25825.7  24807.9  24104.3
  6140.363  6140.380  0.500  1221.2  79.9738  2.705499  0.383051  24013.1  25426.3  24685.7  23538.8
  6152.413  6152.430  0.500  1210.08  77.8381  2.667045  0.382146  23338.2  24546.9  23230.8  23074.6