Folder: webxdiviewer/xdidata/Ce (part 5)

File: Ce-L3-SrCe2Ti4O12.xdi
# XDI/1.0 BlueSky/1.10.0 BMM/2023-1.0-py310-tiled
# Beamline.name: BMM (06BM) -- Beamline for Materials Measurement (NIST)
# Beamline.xray_source: NSLS-II three-pole wiggler
# Beamline.collimation: paraboloid mirror, 5 nm Rh on 30 nm Pt
# Beamline.focusing: not in use
# Beamline.harmonic_rejection: flat mirror, Si stripe, pitch = 7.0 mrad relative to beam
# Beamline.software: Bluesky 1.10.0, Ophyd 1.7.0, DataBroker 2.0.0b13, Python 3.10.8, 2023-1.0-py310-tiled
# Detector.I0: 10 cm N2
# Detector.I1: 25 cm N2
# Detector.I2: 25 cm N2
# Detector.fluorescence: SII Vortex ME4 (4-element silicon drift)
# Detector.deadtime_correction: Xspress3
# Element.symbol: Ce
# Element.edge: L3
# Element.reference: Ce
# Element.reference_material: CeO2
# Facility.name: NSLS-II
# Facility.energy: 3.0
# Facility.current: 400.4
# Facility.mode: top-off
# Facility.GUP: 123456
# Facility.SAF: 301027
# Facility.cycle: 2023-2
# Mono.name: Si(111)
# Mono.d_spacing: 3.13519
# Mono.encoder_resolution: 0.0000050 deg/ct
# Mono.angle_offset: 16.0754 deg
# Mono.scan_mode: pseudo channel cut
# Mono.scan_type: step
# Mono.direction: forward in energy
# Sample.name: SrCe2Ti4O12
# Sample.prep: Powder in PEG pellet
# Sample.x: 142.329 mm
# Sample.y: 114.126 mm
# Sample.SDD_position: 45.000 mm
# Scan.experimenters: Bruce Ravel
# Scan.edge_energy: 5723.4
# Scan.start_time: 2023-05-06T11:06:37
# Scan.end_time: 2023-05-06T11:12:15
# Scan.transient_id: 74755
# Scan.uid: 5ad255b9-ee68-43a6-98ff-f800ea1d894c
# Scan.plot_hint: (Ce1+Ce2+Ce3+Ce4)/I0  --  ($8+$9+$10+$11)/$5
# Column.1: energy eV
# Column.2: requested_energy eV
# Column.3: measurement_time seconds
# Column.4: xmu
# Column.5: I0 nA
# Column.6: It nA
# Column.7: Ir nA
# Column.8: Ce1
# Column.9: Ce2
# Column.10: Ce3
# Column.11: Ce4
# ///////////
# sample courtesy Martin Stennett, University of Sheffield
# -----------
# energy  requested_energy  measurement_time  xmu  I0  It  Ir  Ce1  Ce2  Ce3  Ce4
  5523.399  5523.400  0.500  180.252  109.232  0.915321  0.068068  4773.65  5250.22  4982.27  4683.09
  5553.410  5553.400  0.500  180.019  110.254  1.002980  0.077689  4880.13  5309.29  4876.25  4782.17
  5583.408  5583.400  0.500  185.779  111.105  1.096278  0.088420  5159.71  5316.36  5122.46  5042.39
  5613.407  5613.400  0.500  190.193  111.597  1.191803  0.099886  5261.53  5512.49  5239.54  5211.51
  5643.388  5643.400  0.500  195.775  111.942  1.291778  0.112575  5311.24  5743.75  5416.77  5443.72
  5673.397  5673.400  0.500  200.812  112.074  1.394470  0.126089  5530.27  5815.76  5638.89  5520.78
  5695.395  5695.400  0.500  214.256  112.088  1.466452  0.136258  5934.3  6271.04  5997.11  5812.97
  5701.389  5701.400  0.500  222.5  112.051  1.482626  0.138723  6144.56  6401.17  6300.35  6085.15
  5707.389  5707.400  0.500  236.244  112.021  1.492331  0.140697  6459.97  7040.55  6378.43  6585.48
  5713.400  5713.400  0.500  269.475  111.984  1.481550  0.140491  7258.47  7906.12  7417.1  7595.14
  5714.890  5714.900  0.500  289.477  111.949  1.470464  0.139354  7962.44  8354.42  8110.5  7979.41
  5716.389  5716.400  0.500  313.943  111.882  1.447053  0.137485  8681.86  9054.84  8741.99  8645.86
  5717.888  5717.900  0.500  355.099  111.861  1.405232  0.133596  9671.42  10296.6  9918.82  9834.68
  5719.390  5719.400  0.500  423.115  111.832  1.344472  0.127591  11602.6  12194  11852.2  11669
  5720.894  5720.900  0.500  522.952  111.837  1.255496  0.118861  14212.7  15097.1  14722.4  14453.1
  5722.391  5722.400  0.500  720.103  111.809  1.075695  0.101906  19774.5  20802.2  20214.4  19723
  5723.896  5723.900  0.500  994.343  111.767  0.764234  0.072186  26450.9  27411.9  26915.7  30355.9
  5725.394  5725.400  0.500  1613.59  111.789  0.458110  0.042679  44196.9  46241.4  45500.9  44441.5
  5726.895  5726.900  0.500  1770.42  111.742  0.381141  0.034558  48218.4  50617.4  50291.8  48703.5
  5728.400  5728.400  0.500  1512.5  111.747  0.502752  0.045045  41453.7  43641.2  42558.7  41363.2
  5729.899  5729.900  0.500  1221.59  111.722  0.676821  0.059818  33642.5  34819.7  34565  33451.6
  5731.401  5731.400  0.500  989.045  111.704  0.842487  0.074174  26891.4  28507.9  27847.4  27233.8
  5732.902  5732.900  0.500  831.926  111.642  0.975634  0.086690  22598  24260.4  23313.5  22705.9
  5734.403  5734.400  0.500  747.975  111.706  1.052846  0.094297  20411.8  21704.9  20976.2  20460.6
  5735.903  5735.900  0.500  739.569  111.652  1.071006  0.095983  20243.9  21389.7  20555.9  20384.6
  5737.403  5737.400  0.500  764.316  111.632  1.057063  0.094313  20963.7  22211.6  21238.5  20908.1
  5738.902  5738.900  0.500  776.348  111.6  1.041994  0.093207  21332.4  22483.8  21698  21126.4
  5740.405  5740.400  0.500  801.169  111.83  1.036560  0.093247  22205.9  23202.4  22387.4  21799
  5741.902  5741.900  0.500  803.186  111.852  1.034363  0.094531  22143.2  23264.6  22625.9  21804.1
  5743.401  5743.400  0.500  811.422  111.786  1.037016  0.096015  22226.4  23493.7  22747.1  22238.5
  5744.902  5744.900  0.500  806.61  111.783  1.041669  0.097278  22106.6  23154.4  22797.2  22107.4
  5746.398  5746.400  0.500  812.987  111.756  1.043365  0.097725  22307.3  23393.6  22649.9  22505.7
  5747.901  5747.900  0.500  818.523  111.681  1.040389  0.098050  22415  23657.1  22916.4  22424.8
  5750.400  5750.390  0.500  847.275  111.703  1.024163  0.097044  23294  24432.8  23698.1  23218.6
  5753.530  5753.520  0.500  892.231  111.66  0.993168  0.094209  24629.3  25697  24960.4  24339.8
  5756.832  5756.820  0.500  917.074  111.623  0.979703  0.093091  24986.6  26543  25877.6  24959.6
  5760.301  5760.290  0.500  905.511  111.571  0.999589  0.095204  24813.7  25815.4  25435  24964.5
  5763.940  5763.930  0.500  872.639  111.495  1.042387  0.099302  23943.2  25023.4  24445.7  23882.2
  5767.747  5767.740  0.500  847.186  111.468  1.076466  0.102602  23293.9  24535.9  23637.1  22967.3
  5771.739  5771.730  0.500  838.229  111.389  1.093734  0.104885  22917.7  24159.6  23285.9  23006.5
  5775.895  5775.890  0.500  834.551  111.317  1.109158  0.107032  22676.1  23929.5  23579  22715.2
  5780.221  5780.210  0.500  821.558  111.281  1.129980  0.109635  22561.1  23693.2  22796.4  22372.9
  5784.721  5784.710  0.500  826.285  111.248  1.144644  0.112081  22438.4  24023.5  23049.5  22410.9
  5789.388  5789.380  0.500  851.596  111.15  1.136570  0.111976  23320  24762.2  23602.3  22970.5
  5794.239  5794.230  0.500  887.649  111.109  1.113229  0.110277  24010.7  25427.1  24474.1  24713.4
  5799.248  5799.240  0.500  920.323  111.005  1.105427  0.110262  24950.9  26168.9  25668.5  25372.1
  5804.435  5804.430  0.500  903.876  110.95  1.135535  0.113935  24785.8  25780.4  25206.9  24512.3
  5809.792  5809.780  0.500  877.466  110.806  1.172036  0.118011  23896.8  25372  24375.2  23584.4
  5815.313  5815.310  0.500  875.249  110.728  1.195705  0.121156  23853.2  24871.7  24200.1  23989.8
  5821.021  5821.010  0.500  868.956  110.591  1.214580  0.123557  23452  24668.4  24192  23786.4
  5826.888  5826.880  0.500  871.085  110.423  1.228035  0.125638  23504.1  24995  23837.8  23850.7
  5832.926  5832.920  0.500  889.112  110.233  1.232306  0.127107  24336.6  25398.2  24394.3  23880.8
  5839.143  5839.140  0.500  907.51  110.016  1.235864  0.128365  24354.6  25683.6  25084.1  24718.6
  5845.522  5845.520  0.500  913.661  109.811  1.243906  0.130125  24633.1  25847.7  25058  24790.7
  5852.088  5852.080  0.500  921.85  109.508  1.255850  0.132495  24786.8  26210.1  25297.2  24655.6
  5858.817  5858.810  0.500  922.424  109.124  1.279022  0.135880  24762.2  25983.9  25250.3  24662.7
  5865.716  5865.710  0.500  901.961  108.437  1.310448  0.140470  24211.6  25190.9  24452.1  23951.7
  5872.786  5872.780  0.500  918.991  87.4302  1.074129  0.116057  19940.6  20773.7  19968.8  19664.5
  5880.023  5880.020  0.500  921.866  109.134  1.350742  0.146931  24726.6  26038.2  25238.4  24603.7
  5887.447  5887.440  0.500  942.199  108.447  1.353725  0.148472  25230.6  26239.3  25516.6  25192.2
  5895.025  5895.020  0.500  933.272  107.841  1.374495  0.151961  24757.8  25778.6  25467.4  24641.5
  5902.786  5902.780  0.500  936.678  107.162  1.394424  0.155286  24436  26113.2  25178.4  24648.8
  5910.732  5910.710  0.500  937.142  105.99  1.410168  0.158290  24344.9  25589.5  24969.9  24423.4
  5918.818  5918.810  0.500  934.665  105.87  1.439688  0.163139  24415  25404.2  24813.9  24320.3
  5927.092  5927.080  0.500  945.09  105.3  1.454845  0.166668  24737.9  25652.6  24635.7  24491.5
  5935.533  5935.520  0.500  956.906  105.307  1.472118  0.170080  24859.4  25950.8  25370.5  24588.6
  5944.133  5944.140  0.500  969.046  97.9928  1.388356  0.161974  23509.9  24353.3  23608.7  23487.5
  5952.912  5952.920  0.500  974.14  104.252  1.508918  0.177397  24794.2  26434.2  25253.3  25074
  5961.889  5961.880  0.500  970.847  103.039  1.522682  0.180895  24564  25965.8  24918.8  24586.5
  5971.005  5971.010  0.500  971.976  101.859  1.540372  0.184726  24466.9  25503.1  24717.4  24317
  5980.300  5980.310  0.500  973.627  100.496  1.554091  0.188202  23942.5  25385.9  24668.3  23848.5
  5989.772  5989.780  0.500  993.219  82.9518  1.307138  0.160135  20358  21109.3  20679.7  20242.2
  5999.411  5999.420  0.500  985.648  99.3502  1.594414  0.196569  23967.5  25316.9  24648.3  23991.6
  6009.226  6009.240  0.500  994.744  98.1816  1.606013  0.200237  23971.4  25067.6  24630.1  23996.5
  6019.217  6019.220  0.500  1006.61  96.8234  1.617216  0.203879  24019  24900.1  24328.8  24215.5
  6029.369  6029.380  0.500  1015.51  95.4875  1.629408  0.207557  23823.7  25098.3  24259.6  23787
  6039.696  6039.710  0.500  1010.72  94.1152  1.644814  0.211884  23515.1  24708  23729  23172.4
  6050.201  6050.210  0.500  1019.28  92.7722  1.659977  0.216069  23190.9  24309.4  23992  23068.2
  6060.872  6060.880  0.500  1029.86  91.0746  1.666599  0.218874  22938.4  24310.2  23622.5  22922.9
  6071.706  6071.720  0.500  1037.14  89.6272  1.674710  0.222549  23003.7  23671.6  23372.1  22908.7
  6082.726  6082.740  0.500  1041.33  88.1367  1.683057  0.226390  22823.1  23746.5  22971.6  22238
  6093.905  6093.920  0.500  1044.77  86.7091  1.695050  0.230496  22310.9  23463.1  22586.3  22230.9
  6105.271  6105.280  0.500  1055.98  85.1796  1.706283  0.234618  22302.2  23353.9  22548  21744.3
  6116.792  6116.810  0.500  1056.95  83.5423  1.714963  0.238292  22038.3  22809.3  22103.7  21348.9
  6128.498  6128.510  0.500  1055.08  81.8515  1.721465  0.241687  21041  22327.6  21720  21271.6
  6140.359  6140.380  0.500  1062.33  80.0453  1.722699  0.244807  20897  21922  21128.4  21087.3
  6152.417  6152.430  0.500  1067.84  77.9145  1.705992  0.244988  20578.1  21482.8  20769  20370.7