Folder: webxdiviewer/xdidata/Ce (part 3)

File: Ce-L3-Ce2Ti2O6.xdi
# XDI/1.0 BlueSky/1.10.0 BMM/2023-1.0-py310-tiled
# Beamline.name: BMM (06BM) -- Beamline for Materials Measurement (NIST)
# Beamline.xray_source: NSLS-II three-pole wiggler
# Beamline.collimation: paraboloid mirror, 5 nm Rh on 30 nm Pt
# Beamline.focusing: not in use
# Beamline.harmonic_rejection: flat mirror, Si stripe, pitch = 7.0 mrad relative to beam
# Beamline.software: Bluesky 1.10.0, Ophyd 1.7.0, DataBroker 2.0.0b13, Python 3.10.8, 2023-1.0-py310-tiled
# Detector.I0: 10 cm N2
# Detector.I1: 25 cm N2
# Detector.I2: 25 cm N2
# Detector.fluorescence: SII Vortex ME4 (4-element silicon drift)
# Detector.deadtime_correction: Xspress3
# Element.symbol: Ce
# Element.edge: L3
# Element.reference: Ce
# Element.reference_material: CeO2
# Facility.name: NSLS-II
# Facility.energy: 3.0
# Facility.current: 399.5
# Facility.mode: top-off
# Facility.GUP: 123456
# Facility.SAF: 301027
# Facility.cycle: 2023-2
# Mono.name: Si(111)
# Mono.d_spacing: 3.13519
# Mono.encoder_resolution: 0.0000050 deg/ct
# Mono.angle_offset: 16.0754 deg
# Mono.scan_mode: pseudo channel cut
# Mono.scan_type: step
# Mono.direction: forward in energy
# Sample.name: Ce2Ti2O6
# Sample.prep: Powder in PEG pellet
# Sample.x: 142.329 mm
# Sample.y: 114.126 mm
# Sample.SDD_position: 45.000 mm
# Scan.experimenters: Bruce Ravel
# Scan.edge_energy: 5723.4
# Scan.start_time: 2023-05-06T10:41:00
# Scan.end_time: 2023-05-06T10:46:39
# Scan.transient_id: 74731
# Scan.uid: cc88a37e-e65a-4420-a81e-01732a121c20
# Scan.plot_hint: (Ce1+Ce2+Ce3+Ce4)/I0  --  ($8+$9+$10+$11)/$5
# Column.1: energy eV
# Column.2: requested_energy eV
# Column.3: measurement_time seconds
# Column.4: xmu
# Column.5: I0 nA
# Column.6: It nA
# Column.7: Ir nA
# Column.8: Ce1
# Column.9: Ce2
# Column.10: Ce3
# Column.11: Ce4
# ///////////
# sample courtesy Martin Stennett, University of Sheffield
# -----------
# energy  requested_energy  measurement_time  xmu  I0  It  Ir  Ce1  Ce2  Ce3  Ce4
  5523.402  5523.400  0.500  209.301  108.632  1.268570  0.093352  5589.21  5912.82  5617.88  5616.83
  5553.414  5553.400  0.500  215.007  109.592  1.382883  0.105881  5892.93  6090.01  5817.07  5762.99
  5583.410  5583.400  0.500  219.622  110.317  1.501880  0.119651  5941.4  6215.16  6033.27  6038.22
  5613.405  5613.400  0.500  223.367  110.773  1.624976  0.135030  6150.87  6472.39  6122.37  5997.28
  5643.388  5643.400  0.500  229.603  111.408  1.757648  0.151837  6164.98  6789.63  6251.5  6373.57
  5673.397  5673.400  0.500  236.126  111.534  1.888513  0.169233  6362.92  6806.66  6565.8  6600.75
  5695.396  5695.400  0.500  245.693  111.463  1.984886  0.182732  6697.96  7148.93  6737.95  6800.92
  5701.391  5701.400  0.500  248.299  111.448  2.006080  0.186066  6752.3  7129.96  6951.11  6838.99
  5707.395  5707.400  0.500  261.17  111.421  2.025938  0.189359  7187.04  7562.25  7243.33  7107.19
  5713.403  5713.400  0.500  280.676  111.379  2.031111  0.190938  7719.5  8017.55  7723.69  7800.67
  5714.891  5714.900  0.500  286.747  111.327  2.026881  0.190661  7755.39  8359.84  8019.89  7787.7
  5716.389  5716.400  0.500  302.018  111.295  2.019110  0.189881  8214.85  8786.12  8454.17  8157.93
  5717.890  5717.900  0.500  320.021  111.264  2.003274  0.188389  8790.74  9269.39  8853.42  8693.29
  5719.394  5719.400  0.500  357.276  111.25  1.968135  0.185158  9720.26  10241.1  9937.34  9848.13
  5720.893  5720.900  0.500  405.087  111.211  1.914626  0.179750  11070.7  11771.3  11264.3  10944.1
  5722.393  5722.400  0.500  442.677  111.191  1.876909  0.175873  12121.7  12684.9  12358.1  12056.9
  5723.897  5723.900  0.500  541.618  111.199  1.765924  0.164562  14858.7  15562.2  15095.5  14711.1
  5725.394  5725.400  0.500  729.441  111.191  1.540882  0.141321  18424.4  21444.5  20897.9  20340.3
  5726.898  5726.900  0.500  1060.77  111.149  1.226004  0.109883  28802.5  30393.1  29446.7  29261.2
  5728.398  5728.400  0.500  1230.11  111.148  1.068123  0.094411  33664.1  35128.3  34287.9  33644.2
  5729.897  5729.900  0.500  1246.95  111.176  1.055828  0.092478  34337.7  35581.7  34995.2  33716.4
  5731.399  5731.400  0.500  1305.96  111.136  0.996849  0.086727  35293.8  36957.6  36898.2  35989.3
  5732.901  5732.900  0.500  1351.16  111.118  0.970928  0.085182  36756.5  38688.1  37770.6  36922.6
  5734.405  5734.400  0.500  1317.03  111.088  1.004525  0.089039  36025  37715.4  36706.1  35858.9
  5735.904  5735.900  0.500  1319.8  111.023  1.006191  0.089147  35870  37757.8  36845.5  36055.4
  5737.405  5737.400  0.500  1349.65  110.999  0.977367  0.086279  36550.7  38781.5  37643  36834.6
  5738.901  5738.900  0.500  1335.65  111.011  1.001254  0.088264  36550.3  38413.5  37198.1  36110.6
  5740.405  5740.400  0.500  1226.66  111.015  1.083514  0.096389  33385.3  35174.2  34111.6  33506.9
  5741.903  5741.900  0.500  1121.44  110.97  1.183575  0.106958  30341.6  32079.4  31445.1  30580.2
  5743.403  5743.400  0.500  1008.81  110.941  1.293984  0.118326  27576.5  28838.4  28003.8  27499.2
  5744.900  5744.900  0.500  937.5  110.933  1.382671  0.127668  25350.1  26853  26215.8  25581
  5746.404  5746.400  0.500  896.778  110.894  1.430906  0.132677  24188.8  25758  24949.2  24550.8
  5747.901  5747.900  0.500  879.08  110.881  1.455098  0.135566  23826.3  25110.5  24545.9  23990.3
  5750.405  5750.390  0.500  873.208  110.852  1.474752  0.138220  23673.3  24696.9  24600.7  23825.9
  5753.531  5753.520  0.500  870.844  110.793  1.492793  0.140108  23667.7  24765.1  24405.7  23644.8
  5756.830  5756.820  0.500  872.428  110.732  1.496924  0.140732  23601.9  25151.3  24122.5  23729.9
  5760.301  5760.290  0.500  889.37  110.684  1.487712  0.140141  24272.9  25077.5  24723.1  24365.8
  5763.939  5763.930  0.500  921.608  110.611  1.470030  0.138558  25312.4  26256.9  25470.1  24900.5
  5767.746  5767.740  0.500  963.043  110.6  1.443919  0.136048  26146.2  27467  26736.5  26162.8
  5771.736  5771.730  0.500  978.65  110.543  1.437074  0.136184  26654.2  28042.8  26958.9  26527.4
  5775.902  5775.890  0.500  990.768  110.492  1.446118  0.137748  26641.3  28333.3  27468.5  27029
  5780.221  5780.210  0.500  990.057  110.431  1.467535  0.140918  26962.9  28098.9  27489.5  26781.7
  5784.718  5784.710  0.500  956.463  110.362  1.508013  0.146040  25837.6  27417.1  26439.2  25863.6
  5789.391  5789.380  0.500  947.843  110.299  1.541887  0.150151  25701.5  26735.5  26404.5  25704.6
  5794.240  5794.230  0.500  939.092  110.21  1.563386  0.153081  25613.7  26516.3  26220.2  25147
  5799.249  5799.240  0.500  939.437  110.119  1.588444  0.156724  25561.5  26690.3  25798.8  25399.2
  5804.440  5804.430  0.500  934.385  110.019  1.611780  0.159985  25302.1  26424.3  25845.8  25228.1
  5809.790  5809.780  0.500  935.906  110.273  1.635965  0.163149  25334.2  26629.5  25767.6  25474.2
  5815.316  5815.310  0.500  946.207  110.133  1.646946  0.164839  25457.7  27071  25920.1  25759.9
  5821.018  5821.010  0.500  968.495  110.009  1.649787  0.166310  26365.9  27465.4  26553.7  26158.2
  5826.887  5826.880  0.500  991.43  109.877  1.646948  0.166720  26610.5  28055  27409.5  26859.8
  5832.928  5832.920  0.500  1007.55  109.667  1.647842  0.168096  27141.4  28695.1  27530  27128.7
  5839.146  5839.140  0.500  1007.75  109.478  1.668560  0.171488  26970.8  28324.7  27748.1  27283.6
  5845.524  5845.520  0.500  1004.43  109.192  1.698015  0.175892  26921.9  28251.5  27484  27018.4
  5852.088  5852.080  0.500  1004.81  108.934  1.723990  0.179974  26835.5  28163.2  27578  26881.2
  5858.821  5858.810  0.500  1007.41  108.583  1.742266  0.183258  27225.2  28142.3  27387.5  26631.9
  5865.720  5865.710  0.500  997.762  107.87  1.771020  0.187944  26454.2  27672.7  26912  26589.7
  5872.787  5872.780  0.500  1009.83  86.8174  1.450814  0.155226  21421.2  22670.2  22066.4  21512.9
  5880.028  5880.020  0.500  999.211  108.678  1.845752  0.198836  26938.5  27706.2  27136.8  26810.4
  5887.449  5887.440  0.500  1007.78  107.943  1.860669  0.202054  26607.1  28183.4  27294  26699.1
  5895.025  5895.020  0.500  1017.83  107.387  1.873328  0.205294  26727.3  28264.6  27305.8  27004.3
  5902.792  5902.780  0.500  1030.67  106.733  1.887351  0.208115  26830.5  28264.9  27823.6  27086.7
  5910.732  5910.710  0.500  1030.6  105.595  1.895487  0.210835  26823.4  28054.2  27308.7  26639.9
  5918.830  5918.810  0.500  1040.47  105.529  1.925285  0.216135  27284.7  28289.6  27382.9  26843.3
  5927.078  5927.080  0.500  1054.64  104.967  1.945222  0.220675  27307.7  28464.9  27839.2  27091.5
  5935.541  5935.520  0.500  1051.09  105.092  1.986765  0.227421  27295.6  28471.1  27348.1  27347
  5944.133  5944.140  0.500  1060.21  97.7493  1.885531  0.217779  25521.5  26553.7  26215.3  25344.6
  5952.929  5952.920  0.500  1049.91  104.036  2.045307  0.238258  26803.5  27968.5  27451.1  27005.6
  5961.869  5961.880  0.500  1062.84  102.81  2.058474  0.242142  26934.9  28165.4  27176.6  26994.3
  5971.006  5971.010  0.500  1065.59  101.671  2.072559  0.246380  26677.2  27874.2  27318.7  26469.7
  5980.300  5980.310  0.500  1075.1  100.317  2.082196  0.250026  26759.2  27800.8  26945.9  26344.3
  5989.770  5989.780  0.500  1191.77  82.7385  1.747748  0.212242  22475.9  27493.2  26523.4  22112.7
  5999.408  5999.420  0.500  1089.14  99.192  2.134950  0.261308  26786.7  27919.9  26836  26491.6
  6009.223  6009.240  0.500  1094.26  97.7314  2.140146  0.264715  26292.2  27623.6  26676.8  26351.3
  6019.214  6019.220  0.500  1111.86  96.3398  2.152572  0.268971  26624.7  27460.2  26687.7  26344.1
  6029.367  6029.380  0.500  1109.08  95.0418  2.170212  0.274086  25636.9  27346  26375.2  26050.7
  6039.708  6039.710  0.500  1116.45  93.6751  2.184530  0.278781  25657.8  26985.5  26201.8  25738.3
  6050.207  6050.210  0.500  1120.08  92.3186  2.200174  0.284064  25401.6  26779.2  25921.4  25301.7
  6060.872  6060.880  0.500  1134.67  90.6398  2.208360  0.287926  25469.6  26417.2  25583.7  25375.4
  6071.707  6071.720  0.500  1132.99  89.2211  2.218357  0.292228  24766.5  26167  25251.2  24901.9
  6082.726  6082.740  0.500  1141.2  87.769  2.227360  0.296830  24762.2  25872.7  25236.1  24291.2
  6093.900  6093.920  0.500  1152.4  86.2948  2.238548  0.301828  24354.2  25828.4  24890.5  24373
  6105.261  6105.280  0.500  1159.69  84.7652  2.247935  0.306624  24449.7  25438  24451.9  23961.4
  6116.795  6116.810  0.500  1161.31  83.1672  2.256090  0.310970  23715.2  24981.2  24255.5  23630.9
  6128.495  6128.510  0.500  1169.17  81.462  2.257056  0.314346  23613  24603.9  23874.3  23151.4
  6140.367  6140.380  0.500  1175.08  79.6642  2.253837  0.317738  23363.1  24055.4  23364.5  22829.1
  6152.417  6152.430  0.500  1185.87  77.5623  2.238346  0.319117  22819  23547.5  22978.9  22633.5

File: Ce-L3-Ce2Ti2O7.xdi
# XDI/1.0 BlueSky/1.10.0 BMM/2023-1.0-py310-tiled
# Beamline.name: BMM (06BM) -- Beamline for Materials Measurement (NIST)
# Beamline.xray_source: NSLS-II three-pole wiggler
# Beamline.collimation: paraboloid mirror, 5 nm Rh on 30 nm Pt
# Beamline.focusing: not in use
# Beamline.harmonic_rejection: flat mirror, Si stripe, pitch = 7.0 mrad relative to beam
# Beamline.software: Bluesky 1.10.0, Ophyd 1.7.0, DataBroker 2.0.0b13, Python 3.10.8, 2023-1.0-py310-tiled
# Detector.I0: 10 cm N2
# Detector.I1: 25 cm N2
# Detector.I2: 25 cm N2
# Detector.fluorescence: SII Vortex ME4 (4-element silicon drift)
# Detector.deadtime_correction: Xspress3
# Element.symbol: Ce
# Element.edge: L3
# Element.reference: Ce
# Element.reference_material: CeO2
# Facility.name: NSLS-II
# Facility.energy: 3.0
# Facility.current: 399.9
# Facility.mode: top-off
# Facility.GUP: 123456
# Facility.SAF: 301027
# Facility.cycle: 2023-2
# Mono.name: Si(111)
# Mono.d_spacing: 3.13519
# Mono.encoder_resolution: 0.0000050 deg/ct
# Mono.angle_offset: 16.0754 deg
# Mono.scan_mode: pseudo channel cut
# Mono.scan_type: step
# Mono.direction: forward in energy
# Sample.name: Ce2Ti2O7
# Sample.prep: Powder in PEG pellet
# Sample.x: 142.329 mm
# Sample.y: 114.126 mm
# Sample.SDD_position: 45.000 mm
# Scan.experimenters: Bruce Ravel
# Scan.edge_energy: 5723.4
# Scan.start_time: 2023-05-06T10:34:35
# Scan.end_time: 2023-05-06T10:40:17
# Scan.transient_id: 74725
# Scan.uid: ffa7c10f-6ee4-4c2e-aaa3-b1590b842e49
# Scan.plot_hint: (Ce1+Ce2+Ce3+Ce4)/I0  --  ($8+$9+$10+$11)/$5
# Column.1: energy eV
# Column.2: requested_energy eV
# Column.3: measurement_time seconds
# Column.4: xmu
# Column.5: I0 nA
# Column.6: It nA
# Column.7: Ir nA
# Column.8: Ce1
# Column.9: Ce2
# Column.10: Ce3
# Column.11: Ce4
# ///////////
# sample courtesy Martin Stennett, University of Sheffield
# -----------
# energy  requested_energy  measurement_time  xmu  I0  It  Ir  Ce1  Ce2  Ce3  Ce4
  5523.402  5523.400  0.500  105.727  109.451  1.337065  0.098803  2906.34  3055.85  2849.88  2759.83
  5553.414  5553.400  0.500  108.75  110.429  1.459999  0.112384  2902.32  3211.94  2917.92  2976.93
  5583.408  5583.400  0.500  112.59  111.26  1.587503  0.127257  3052.78  3324  3105  3044.97
  5613.405  5613.400  0.500  113.914  111.784  1.715423  0.143274  3165.67  3330.03  3169.07  3069.01
  5643.389  5643.400  0.500  116.461  112.108  1.852828  0.160714  3253.92  3426.1  3200.11  3176.08
  5673.398  5673.400  0.500  123.621  112.27  1.990617  0.179074  3480.38  3630.2  3415.21  3353.17
  5695.391  5695.400  0.500  135.084  112.244  2.085458  0.192866  3780.24  3899.31  3782.39  3700.32
  5701.389  5701.400  0.500  143.224  112.187  2.107791  0.196373  3986.61  4346.49  3886.45  3848.4
  5707.386  5707.400  0.500  160.139  112.179  2.118651  0.198650  4506.4  4719.63  4382.63  4355.6
  5713.403  5713.400  0.500  198.945  112.12  2.099642  0.198047  5535.43  5755.1  5579.19  5436.1
  5714.888  5714.900  0.500  221.292  112.111  2.078141  0.196214  6057.07  6342.35  6192.51  6217.44
  5716.389  5716.400  0.500  255.164  112.082  2.045736  0.193304  7011.59  7453.84  7132.94  7000.82
  5717.891  5717.900  0.500  307.597  112.053  1.986183  0.187822  8453.3  8945.57  8733.78  8334.52
  5719.393  5719.400  0.500  383.646  112.042  1.898873  0.179135  10617  11163.8  10771.9  10431.7
  5720.894  5720.900  0.500  491.243  112.015  1.771001  0.166953  13793  14228.6  13539.7  13465.6
  5722.393  5722.400  0.500  713.142  111.996  1.520404  0.143269  19875.1  20643.3  19883.5  19467.2
  5723.897  5723.900  0.500  1111.75  111.982  1.129078  0.105779  30991.6  32141.4  31131  30231.9
  5725.395  5725.400  0.500  1469.98  112.21  0.828640  0.076465  40602.4  42669  41530.4  40144.9
  5726.898  5726.900  0.500  1587.4  112.212  0.744468  0.067107  44048.7  45970.4  44585.1  43520.9
  5728.400  5728.400  0.500  1463.21  112.181  0.849107  0.075660  41394.1  43606.2  39983  39160.2
  5729.900  5729.900  0.500  1190.2  112.19  1.044005  0.091711  32900.2  34578  33293.2  32757.7
  5731.398  5731.400  0.500  1002.6  112.149  1.220381  0.106616  27984.5  29283.2  27612.9  27559.8
  5732.902  5732.900  0.500  867.611  112.155  1.362554  0.120128  23823.7  25267.1  24372.6  23844
  5734.405  5734.400  0.500  793.407  112.107  1.450102  0.129221  21908.5  23084.3  22275.6  21678.2
  5735.903  5735.900  0.500  769.151  112.09  1.478501  0.131832  21153.7  22386.7  21634  21039.5
  5737.408  5737.400  0.500  773.455  112.098  1.478849  0.131130  21317.1  22558.9  21544  21282.7
  5738.899  5738.900  0.500  786.76  112.063  1.479959  0.131521  21697.8  22905.3  21982.3  21581
  5740.405  5740.400  0.500  777.707  112.059  1.488228  0.133432  21638.4  22462.8  21788.1  21259.7
  5741.899  5741.900  0.500  778.483  112.026  1.498996  0.136238  21482.2  22575.9  21935.4  21216.7
  5743.403  5743.400  0.500  770.386  111.99  1.510628  0.138928  21314.8  22376.7  21375.8  21208.6
  5744.898  5744.900  0.500  772.662  112.003  1.520468  0.140939  21181  22402.9  21700.2  21256.7
  5746.402  5746.400  0.500  765.581  111.991  1.527296  0.142346  21108.2  22172.6  21394.8  21062.5
  5747.904  5747.900  0.500  771.11  111.929  1.529005  0.142946  21173.7  22352.8  21381  21401.9
  5750.401  5750.390  0.500  794.736  111.88  1.517363  0.142757  22015.3  22885.3  22123.4  21891.3
  5753.525  5753.520  0.500  831.889  111.822  1.487335  0.140343  22840.9  23864.2  23519  22799.2
  5756.830  5756.820  0.500  868.335  111.763  1.455748  0.137616  23818.4  25116.4  24412.7  23700.2
  5760.298  5760.290  0.500  890.322  111.712  1.439555  0.136196  24661  25866.9  24689.9  24241.7
  5763.937  5763.930  0.500  882.445  111.606  1.464160  0.138640  24420.5  25809.8  24379.6  23876.3
  5767.735  5767.740  0.500  852.998  111.443  1.515383  0.143719  23461  24786.9  23403.6  23408.6
  5771.730  5771.730  0.500  819.392  111.345  1.561333  0.148541  22912.7  23548.8  22580.1  22193.6
  5775.898  5775.890  0.500  802.969  111.211  1.592925  0.152317  22045.1  23109.7  22367  21777.4
  5780.215  5780.210  0.500  810.936  111.125  1.612908  0.155653  22119.2  23329.7  22486.9  22179.7
  5784.718  5784.710  0.500  802.105  111.01  1.627528  0.158275  22050.3  22917.3  22288.7  21785.2
  5789.389  5789.380  0.500  818.113  110.887  1.631606  0.159745  22116  23637  22603.1  22361.8
  5794.233  5794.230  0.500  838.297  110.769  1.623537  0.159612  23008.8  24084.4  22951.5  22812.3
  5799.248  5799.240  0.500  862.72  110.638  1.617966  0.160183  23477.7  24807.1  23785.2  23379.9
  5804.439  5804.430  0.500  868.428  110.506  1.628538  0.162355  23496  24888.4  23994.6  23587.2
  5809.788  5809.780  0.500  868.963  110.374  1.654311  0.165721  23758.3  24669.9  23917.4  23565
  5815.316  5815.310  0.500  854.464  110.246  1.680692  0.169023  23319.3  24319.7  23521.1  23041.6
  5821.015  5821.010  0.500  855.846  110.057  1.706385  0.172669  23024.7  24292.8  23518.1  23355.9
  5826.887  5826.880  0.500  863.06  109.918  1.727029  0.175713  23440.7  24469.9  23582.2  23372.9
  5832.928  5832.920  0.500  867.37  109.724  1.742446  0.178555  23475.3  24691.2  23812.4  23192.8
  5839.146  5839.140  0.500  872.384  109.485  1.756831  0.181444  23486.9  24961.2  23689.3  23376
  5845.524  5845.520  0.500  885.592  109.239  1.770556  0.184280  23834.1  25152.5  24145.8  23609.2
  5852.087  5852.080  0.500  891.168  108.913  1.784502  0.187097  23816.2  25036.3  24718.2  23489.1
  5858.815  5858.810  0.500  888.504  108.542  1.810195  0.191495  23874.6  24945.4  24067.6  23552.1
  5865.719  5865.710  0.500  880.765  107.847  1.835679  0.195546  23281.3  24724.2  23654.3  23327.9
  5872.786  5872.780  0.500  899.999  86.6931  1.497691  0.160927  19315.4  20098  19250.1  19360.2
  5880.023  5880.020  0.500  904.306  108.58  1.893452  0.204723  24210  25403.9  24411  24164.8
  5887.453  5887.440  0.500  916.451  107.838  1.902733  0.207685  24522.3  25432.9  24604.3  24268.9
  5895.027  5895.020  0.500  911.675  107.231  1.922400  0.211280  24227  25296.8  24458.2  23777.5
  5902.797  5902.780  0.500  917.768  106.547  1.944262  0.215236  23959  25215.7  24549.2  24061.7
  5910.723  5910.710  0.500  914.622  105.385  1.964401  0.219384  23953.5  24950.5  23984.7  23499.1
  5918.813  5918.810  0.500  908.796  105.776  2.011225  0.226824  23710.2  25129.7  24113.9  23175.1
  5927.079  5927.080  0.500  919.082  105.2  2.030440  0.230992  23921.9  25094.6  23959.8  23711.4
  5935.514  5935.520  0.500  928.806  105.207  2.057441  0.236262  24373  25394.9  24220.9  23728.5
  5944.127  5944.140  0.500  955.179  97.8577  1.941399  0.225405  22964.8  24470.4  23177.3  22859.1
  5952.920  5952.920  0.500  947.048  104.159  2.102182  0.245903  24430  25509  24522.2  24182.8
  5961.868  5961.880  0.500  952.297  102.92  2.116204  0.249899  24142.7  25466.9  24620.3  23780.5
  5971.000  5971.010  0.500  953.352  101.739  2.134700  0.254494  23576.1  25325.7  24170.8  23920.4
  5980.307  5980.310  0.500  952.942  100.403  2.146326  0.258498  23755.6  24900.6  23832.4  23189.9
  5989.769  5989.780  0.500  974.759  82.6862  1.797945  0.219253  20002.8  20803.7  19853.8  19938.7
  5999.408  5999.420  0.500  970.236  99.265  2.201042  0.270536  23971.4  24850.4  24081.7  23407
  6009.223  6009.240  0.500  973.267  97.7511  2.211109  0.274154  23551.4  24654.9  23807  23124.6
  6019.214  6019.220  0.500  977.603  96.3757  2.222126  0.278588  23291  24734  23612.9  22579.2
  6029.376  6029.380  0.500  988.692  95.0192  2.235055  0.283266  23231  24445.7  23441.8  22826.3
  6039.696  6039.710  0.500  994.438  93.7202  2.249670  0.288152  23237.4  24287.4  23030.2  22643.9
  6050.199  6050.210  0.500  999.216  92.377  2.262134  0.292870  22890.2  23930.2  22866.2  22618
  6060.869  6060.880  0.500  999.824  90.7046  2.266516  0.296520  22448.9  23673.7  22442.6  22123.4
  6071.706  6071.720  0.500  1006.18  89.2568  2.278575  0.301196  22453.8  23399.4  22132.3  21823
  6082.735  6082.740  0.500  1016.51  87.8001  2.287179  0.305669  22216.2  23087.2  22035.2  21911
  6093.900  6093.920  0.500  1024.29  86.3235  2.296682  0.310704  21892.8  22966.1  22089.3  21471.8
  6105.264  6105.280  0.500  1031.22  84.8038  2.305966  0.315475  21575.1  22604.6  21868.8  21402.5
  6116.791  6116.810  0.500  1039.88  83.1931  2.314475  0.319800  21461.6  22401.4  21520.3  21127.1
  6128.490  6128.510  0.500  1034.62  81.5231  2.317701  0.323648  20978.7  21823.9  20965  20577.7
  6140.363  6140.380  0.500  1042.36  79.7126  2.315720  0.327189  20652.2  21666.6  20358.5  20412.4
  6152.413  6152.430  0.500  1039.55  77.5695  2.290515  0.327501  20031.8  21001.2  19987.2  19616.9