Folder: webxdiviewer/xdidata/Ce

Note: xdidata/README.md
# bmm-standards
A pretty webpage for BMM's collection of common XAFS materials

[BMM's common materials collection](./BMM-standards.html)

Plotting of the data will happen soon.

Periodic table adapted from [some guy named Daniel](https://codepen.io/gooseofmusic/pen/PjKdNQ)

[This](https://www.coderstool.com/scss-to-css) is a helpful tool for
dealing with Sassy CSS.

File: Ce-L1-CeriumDioxide.xdi
# XDI/1.0 BlueSky/1.10.0 BMM/2023-1.0-py310-tiled
# Beamline.name: BMM (06BM) -- Beamline for Materials Measurement (NIST)
# Beamline.xray_source: NSLS-II three-pole wiggler
# Beamline.collimation: paraboloid mirror, 5 nm Rh on 30 nm Pt
# Beamline.focusing: not in use
# Beamline.harmonic_rejection: flat mirror, Si stripe, pitch = 7.0 mrad relative to beam
# Beamline.software: Bluesky 1.10.0, Ophyd 1.7.0, DataBroker 2.0.0b13, Python 3.10.8, 2023-1.0-py310-tiled
# Detector.I0: 10 cm N2
# Detector.I1: 25 cm N2
# Detector.I2: 25 cm N2
# Element.symbol: Ce
# Element.edge: L1
# Element.reference: Ce
# Element.reference_material: CeO2
# Facility.name: NSLS-II
# Facility.energy: 3.0
# Facility.current: 400.5
# Facility.mode: top-off
# Facility.GUP: 301027
# Facility.SAF: 310583
# Facility.cycle: 2023-2
# Mono.name: Si(111)
# Mono.d_spacing: 3.13519
# Mono.encoder_resolution: 0.0000050 deg/ct
# Mono.angle_offset: 16.0754 deg
# Mono.scan_mode: pseudo channel cut
# Mono.scan_type: step
# Mono.direction: forward in energy
# Sample.name: CeO2
# Sample.prep: PEG pellet
# Sample.x: 109.138 mm
# Sample.y: 153.150 mm
# Sample.SDD_position: 205.000 mm
# Scan.experimenters: Bruce Ravel
# Scan.edge_energy: 6548.8
# Scan.start_time: 2023-05-28T12:36:40
# Scan.end_time: 2023-05-28T12:44:48
# Scan.transient_id: 78686
# Scan.uid: 7bb79308-2729-412a-b13a-0e3c914248a4
# Scan.plot_hint: ln(It/Ir)  --  ln($6/$7)
# Column.1: energy eV
# Column.2: requested_energy eV
# Column.3: measurement_time seconds
# Column.4: xmu
# Column.5: I0 nA
# Column.6: It nA
# Column.7: Ir nA
# ///////////
# sample courtesy Martin Stennett, University of Sheffield
# -----------
# energy  requested_energy  measurement_time  xmu  I0  It  Ir
  6348.798  6348.800  0.500  2.257862  152.954  113.956  11.9168
  6378.814  6378.800  0.500  2.226178  153.849  116.124  12.5344
  6408.826  6408.800  0.500  2.196327  154.525  118.21  13.1463
  6438.814  6438.800  0.500  2.166874  155  120.185  13.7654
  6468.810  6468.800  0.500  2.137718  155.351  122.007  14.3876
  6498.815  6498.800  0.500  2.109100  155.733  123.854  15.0293
  6520.777  6520.800  0.500  2.088314  156.464  125.578  15.5586
  6526.783  6526.800  0.500  2.082755  156.508  125.937  15.6901
  6532.791  6532.800  0.500  2.077157  156.558  126.355  15.8305
  6538.798  6538.800  0.500  2.071624  156.593  126.586  15.9475
  6539.685  6539.700  0.500  2.070841  156.569  126.619  15.964
  6540.586  6540.600  0.500  2.069967  156.554  126.699  15.9881
  6541.486  6541.500  0.500  2.069202  156.555  126.741  16.0057
  6542.388  6542.400  0.500  2.068388  156.553  126.786  16.0244
  6543.296  6543.300  0.500  2.067679  156.564  126.837  16.0422
  6544.189  6544.200  0.500  2.066930  156.561  126.907  16.0631
  6545.090  6545.100  0.500  2.066276  156.558  126.951  16.0791
  6545.995  6546.000  0.500  2.065613  156.578  127.008  16.0971
  6546.897  6546.900  0.500  2.064811  156.564  127.067  16.1175
  6547.795  6547.800  0.500  2.064088  156.562  127.083  16.1312
  6548.694  6548.700  0.500  2.063280  156.552  127.097  16.146
  6549.601  6549.600  0.500  2.062578  156.543  127.115  16.1596
  6550.500  6550.500  0.500  2.061898  156.535  127.155  16.1757
  6551.396  6551.400  0.500  2.061091  156.514  127.215  16.1964
  6552.301  6552.300  0.500  2.060639  156.526  127.234  16.2061
  6553.197  6553.200  0.500  2.060043  156.5  127.241  16.2167
  6554.104  6554.100  0.500  2.059734  156.493  127.323  16.2322
  6555.001  6555.000  0.500  2.059354  156.496  127.353  16.2421
  6555.899  6555.900  0.500  2.058918  156.5  127.403  16.2557
  6556.798  6556.800  0.500  2.058193  156.491  127.444  16.2727
  6557.699  6557.700  0.500  2.057667  156.472  127.498  16.2881
  6558.597  6558.600  0.500  2.057124  156.466  127.547  16.3032
  6559.497  6559.500  0.500  2.056795  156.472  127.554  16.3095
  6560.406  6560.400  0.500  2.056586  156.474  127.616  16.3208
  6561.301  6561.300  0.500  2.056487  156.479  127.658  16.3278
  6562.198  6562.200  0.500  2.056750  156.177  127.493  16.3024
  6563.097  6563.100  0.500  2.056540  156.928  128.107  16.3843
  6563.998  6564.000  0.500  2.056315  156.999  128.204  16.4004
  6564.897  6564.900  0.500  2.055866  157.023  128.262  16.4152
  6565.793  6565.800  0.500  2.055597  157.025  128.358  16.4319
  6566.699  6566.700  0.500  2.055262  157.027  128.361  16.4378
  6567.599  6567.600  0.500  2.055041  156.998  128.408  16.4474
  6568.500  6568.500  0.500  2.054784  156.99  128.457  16.4579
  6569.402  6569.400  0.500  2.054532  157.004  128.539  16.4726
  6570.300  6570.300  0.500  2.054194  156.994  128.591  16.4849
  6571.199  6571.200  0.500  2.053919  157.006  128.655  16.4976
  6572.106  6572.100  0.500  2.053573  156.99  128.7  16.5091
  6573.006  6573.000  0.500  2.053446  156.987  128.726  16.5145
  6573.799  6573.800  0.500  2.053079  156.988  128.766  16.5257
  6576.822  6576.810  0.500  2.052100  157.018  128.915  16.5611
  6579.990  6580.000  0.500  2.048903  156.997  129.1  16.6379
  6583.358  6583.360  0.500  2.045089  156.971  129.257  16.7218
  6586.879  6586.880  0.500  2.040734  156.77  129.276  16.7973
  6590.582  6590.580  0.500  2.036391  156.959  129.62  16.9152
  6594.450  6594.450  0.500  2.031793  156.975  129.803  17.0172
  6598.504  6598.500  0.500  2.027626  156.984  129.973  17.1107
  6602.715  6602.710  0.500  2.023860  156.947  130.219  17.2077
  6607.098  6607.090  0.500  2.020081  156.986  130.448  17.3033
  6611.657  6611.650  0.500  2.016407  157.036  130.742  17.4061
  6616.388  6616.380  0.500  2.012438  157.035  130.907  17.4973
  6621.285  6621.280  0.500  2.008615  156.993  131.178  17.6007
  6626.358  6626.350  0.500  2.004740  157.025  131.488  17.7108
  6631.595  6631.590  0.500  2.000415  157.019  131.759  17.8242
  6637.016  6637.010  0.500  1.995592  157.031  131.994  17.9424
  6642.602  6642.590  0.500  1.990493  157.015  132.279  18.073
  6648.363  6648.350  0.500  1.985256  156.996  132.574  18.2084
  6654.295  6654.280  0.500  1.979594  156.988  132.85  18.35
  6660.393  6660.380  0.500  1.974068  156.996  133.197  18.4998
  6666.662  6666.650  0.500  1.968488  157.008  133.507  18.6467
  6673.102  6673.090  0.500  1.962916  156.978  133.833  18.7966
  6679.708  6679.700  0.500  1.957602  156.956  134.112  18.9361
  6686.498  6686.490  0.500  1.952136  156.927  134.43  19.0851
  6693.465  6693.450  0.500  1.946156  156.885  134.75  19.2453
  6700.579  6700.570  0.500  1.940069  156.839  135.099  19.4129
  6707.879  6707.870  0.500  1.933899  156.782  135.356  19.5702
  6715.355  6715.350  0.500  1.928068  156.775  135.731  19.7393
  6723.004  6722.990  0.500  1.921765  156.725  136.039  19.909
  6730.812  6730.800  0.500  1.914960  156.709  136.418  20.1009
  6738.797  6738.790  0.500  1.908070  156.666  136.806  20.2974
  6746.958  6746.950  0.500  1.901318  156.611  137.175  20.4901
  6755.286  6755.270  0.500  1.894605  156.551  137.481  20.6741
  6763.784  6763.770  0.500  1.887861  156.512  137.854  20.8705
  6772.460  6772.450  0.500  1.880858  156.451  138.21  21.0715
  6781.306  6781.290  0.500  1.873790  156.414  138.674  21.2921
  6790.315  6790.300  0.500  1.866515  156.373  139.108  21.5147
  6799.503  6799.490  0.500  1.859183  155.97  139.182  21.6845
  6808.868  6808.850  0.500  1.851891  156.07  139.696  21.9239
  6818.387  6818.370  0.500  1.844501  156.314  140.411  22.1995
  6828.086  6828.070  0.500  1.836820  155.887  140.504  22.3855
  6837.970  6837.950  0.500  1.828821  155.774  140.845  22.6201
  6848.011  6847.990  0.500  1.821026  155.523  141.094  22.8375
  6858.216  6858.200  0.500  1.813019  155.496  141.548  23.095
  6868.612  6868.590  0.500  1.805173  155.441  142.031  23.3564
  6879.172  6879.150  0.500  1.797318  155.32  142.417  23.6045
  6889.899  6889.880  0.500  1.789342  155.16  142.779  23.8541
  6900.797  6900.780  0.500  1.780900  154.95  143.073  24.1058
  6911.832  6911.850  0.500  1.772603  154.635  143.345  24.353
  6923.116  6923.090  0.500  1.764187  154.276  143.494  24.5842
  6934.535  6934.510  0.500  1.755835  153.964  143.766  24.8374
  6946.097  6946.090  0.500  1.747382  153.714  144.086  25.1041
  6957.867  6957.850  0.500  1.738716  153.387  144.25  25.3513
  6969.789  6969.780  0.500  1.729873  153.104  144.591  25.6369
  6981.893  6981.880  0.500  1.721247  152.763  144.804  25.8971
  6994.155  6994.150  0.500  1.712553  152.491  145.048  26.1673
  7006.599  7006.590  0.500  1.703654  152.146  145.337  26.4539
  7019.217  7019.210  0.500  1.694865  151.793  145.507  26.7186
  7032.006  7031.990  0.500  1.685832  151.491  145.792  27.0139
  7044.940  7044.950  0.500  1.676658  151.089  146.019  27.3053
  7058.074  7058.080  0.500  1.667582  150.71  146.217  27.5916
  7071.380  7071.380  0.500  1.658433  150.092  146.186  27.8393
  7084.831  7084.850  0.500  1.649361  149.683  146.408  28.1357
  7098.484  7098.500  0.500  1.640219  149.284  146.538  28.4193
  7112.294  7112.310  0.500  1.630862  148.656  146.58  28.6946
  7126.320  7126.300  0.500  1.621667  147.76  146.293  28.903
  7140.469  7140.460  0.500  1.612245  146.997  146.105  29.139
  7154.772  7154.790  0.500  1.602865  146.604  146.272  29.4473
  7169.274  7169.290  0.500  1.593580  145.999  146.304  29.7285
  7183.971  7183.960  0.500  1.584125  145.367  146.277  30.0054
  7198.785  7198.800  0.500  1.574561  144.718  146.245  30.2871
  7213.794  7213.820  0.500  1.564972  144.049  146.185  30.5665
  7228.975  7229.000  0.500  1.555330  142.427  145.106  30.6348
  7244.329  7244.360  0.500  1.545754  142.583  145.903  31.0994
  7259.861  7259.890  0.500  1.536081  142.128  146.015  31.4259
  7275.570  7275.590  0.500  1.526517  142.041  146.484  31.8297
  7291.459  7291.460  0.500  1.516772  141.466  146.606  32.1681
  7307.490  7307.510  0.500  1.507130  140.97  146.68  32.4961
  7323.701  7323.720  0.500  1.497290  140.333  146.651  32.811
  7340.119  7340.110  0.500  1.487541  138.749  145.605  32.8961
  7356.691  7356.670  0.500  1.477892  139.102  146.545  33.4296
  7373.421  7373.400  0.500  1.468066  138.472  146.469  33.7421
  7390.283  7390.300  0.500  1.458227  137.789  146.431  34.067
  7401.640  7401.660  0.500  1.451729  137.394  146.433  34.2894

File: Ce-L3-Bi2Ce2Ti4O12.xdi
# XDI/1.0 BlueSky/1.10.0 BMM/2023-1.0-py310-tiled
# Beamline.name: BMM (06BM) -- Beamline for Materials Measurement (NIST)
# Beamline.xray_source: NSLS-II three-pole wiggler
# Beamline.collimation: paraboloid mirror, 5 nm Rh on 30 nm Pt
# Beamline.focusing: not in use
# Beamline.harmonic_rejection: flat mirror, Si stripe, pitch = 7.0 mrad relative to beam
# Beamline.software: Bluesky 1.10.0, Ophyd 1.7.0, DataBroker 2.0.0b13, Python 3.10.8, 2023-1.0-py310-tiled
# Detector.I0: 10 cm N2
# Detector.I1: 25 cm N2
# Detector.I2: 25 cm N2
# Detector.fluorescence: SII Vortex ME4 (4-element silicon drift)
# Detector.deadtime_correction: Xspress3
# Element.symbol: Ce
# Element.edge: L3
# Element.reference: Ce
# Element.reference_material: CeO2
# Facility.name: NSLS-II
# Facility.energy: 3.0
# Facility.current: 399.4
# Facility.mode: top-off
# Facility.GUP: 123456
# Facility.SAF: 301027
# Facility.cycle: 2023-2
# Mono.name: Si(111)
# Mono.d_spacing: 3.13519
# Mono.encoder_resolution: 0.0000050 deg/ct
# Mono.angle_offset: 16.0754 deg
# Mono.scan_mode: pseudo channel cut
# Mono.scan_type: step
# Mono.direction: forward in energy
# Sample.name: Bi2Ce2Ti4O12
# Sample.prep: Powder in PEG pellet
# Sample.x: 142.329 mm
# Sample.y: 114.126 mm
# Sample.SDD_position: 45.000 mm
# Scan.experimenters: Bruce Ravel
# Scan.edge_energy: 5723.4
# Scan.start_time: 2023-05-06T11:12:59
# Scan.end_time: 2023-05-06T11:18:45
# Scan.transient_id: 74761
# Scan.uid: 30886691-e489-4bc7-ab65-233edb2d2198
# Scan.plot_hint: (Ce1+Ce2+Ce3+Ce4)/I0  --  ($8+$9+$10+$11)/$5
# Column.1: energy eV
# Column.2: requested_energy eV
# Column.3: measurement_time seconds
# Column.4: xmu
# Column.5: I0 nA
# Column.6: It nA
# Column.7: Ir nA
# Column.8: Ce1
# Column.9: Ce2
# Column.10: Ce3
# Column.11: Ce4
# ///////////
# sample courtesy Martin Stennett, University of Sheffield
# -----------
# energy  requested_energy  measurement_time  xmu  I0  It  Ir  Ce1  Ce2  Ce3  Ce4
  5523.404  5523.400  0.500  54.6496  108.878  0.676673  0.050511  1513.28  1542.29  1429.3  1465.3
  5553.415  5553.400  0.500  56.9977  109.857  0.740748  0.057600  1533.63  1616.31  1588.33  1523.31
  5583.410  5583.400  0.500  56.6391  110.654  0.808263  0.065423  1595.38  1579.31  1545.34  1547.33
  5613.411  5613.400  0.500  57.938  111.151  0.878413  0.073929  1571.84  1682.34  1581.36  1604.35
  5643.390  5643.400  0.500  59.6201  111.521  0.952593  0.083087  1709.82  1735.36  1559.36  1644.37
  5673.397  5673.400  0.500  63.3225  111.676  1.029144  0.093321  1738.41  1859.4  1703.39  1770.4
  5695.397  5695.400  0.500  66.2652  111.636  1.084256  0.101078  1849.32  1982.42  1742.41  1823.42
  5701.391  5701.400  0.500  69.3122  111.612  1.099044  0.103104  1987.72  1964.43  1897.46  1886.44
  5707.400  5707.400  0.500  73.2746  111.595  1.111008  0.104967  2087.67  2130.48  1954.48  2004.48
  5713.396  5713.400  0.500  84.6158  111.527  1.117292  0.106252  2318.2  2441.56  2314.59  2362.59
  5714.887  5714.900  0.500  90.7662  111.518  1.116537  0.106138  2517.27  2648.6  2474.62  2481.6
  5716.389  5716.400  0.500  100.79  111.53  1.113119  0.106115  2757.06  2903.68  2733.71  2846.72
  5717.891  5717.900  0.500  114.381  111.871  1.107509  0.105546  3143.44  3326.79  3198.84  3126.79
  5719.396  5719.400  0.500  138.979  111.847  1.091457  0.103911  3782.4  4052.99  3830.03  3879.02
  5720.893  5720.900  0.500  170.175  111.87  1.067645  0.101428  4788.61  5028.31  4698.35  4522.27
  5722.394  5722.400  0.500  236.82  111.811  1.017117  0.096393  6565.05  6925.99  6532.08  6456
  5723.900  5723.900  0.500  376.51  111.767  0.909291  0.085920  10539.5  10908.6  10279.7  10353.7
  5725.393  5725.400  0.500  574.784  111.759  0.769735  0.071648  16014.6  16680.9  15861.9  15679.8
  5726.893  5726.900  0.500  653.716  111.782  0.711259  0.064674  18058.7  18895.3  18386.7  17733.2
  5728.398  5728.400  0.500  575.684  111.774  0.764087  0.068495  15951.5  16717.9  16158.1  15518.7
  5729.901  5729.900  0.500  520.156  111.712  0.824603  0.073160  14542.3  15060.8  14284  14220.8
  5731.401  5731.400  0.500  439.191  111.696  0.867361  0.076440  12299.2  12639.5  12042.6  12074.5
  5732.903  5732.900  0.500  383.84  111.694  0.912365  0.081122  10912.9  11095.8  10481.9  10381.8
  5734.405  5734.400  0.500  353.496  111.646  0.940745  0.084568  9849.32  10193.3  9766.47  9657.34
  5735.898  5735.900  0.500  353.033  111.648  0.943428  0.084937  9743.15  10249.3  9728.47  9694.35
  5737.401  5737.400  0.500  374.949  111.621  0.933951  0.083666  10183.8  10968.7  10212.7  10486.8
  5738.901  5738.900  0.500  373.987  111.587  0.935647  0.083969  10332.1  10731.6  10456.8  10211.6
  5740.405  5740.400  0.500  363.003  111.57  0.947765  0.085523  10141.8  10327.5  10039.6  9991.55
  5741.899  5741.900  0.500  340.522  111.576  0.968695  0.088702  9535.35  9879.2  9380.31  9199.15
  5743.406  5743.400  0.500  324.042  111.543  0.987617  0.091508  8923.55  9258.91  9156.15  8805.95
  5744.906  5744.900  0.500  316.486  111.518  0.999444  0.093370  8664.26  9150.83  8764.96  8713.88
  5746.398  5746.400  0.500  310.003  111.451  1.006360  0.094581  8659.7  9059.81  8452.85  8377.78
  5747.904  5747.900  0.500  311.902  111.423  1.010885  0.095374  8526.44  9140.87  8817  8268.78
  5750.401  5750.390  0.500  317.068  111.381  1.010935  0.095736  8894.61  9162.86  8612.94  8644.9
  5753.530  5753.520  0.500  331.243  111.36  1.005581  0.095721  9128.76  9526.02  9181.2  9051.1
  5756.830  5756.820  0.500  343.666  111.286  1.002466  0.095498  9480.45  10064.3  9431.33  9269.24
  5760.285  5760.290  0.500  352.299  111.234  1.007953  0.096113  9620.35  10324.4  9777.5  9465.3
  5763.932  5763.930  0.500  345.518  111.183  1.020046  0.097636  9440.6  10112.3  9449.36  9413.26
  5767.750  5767.740  0.500  340.167  111.148  1.033256  0.098831  9333.09  9923.2  9271.27  9281.19
  5771.736  5771.730  0.500  337.542  111.083  1.045729  0.100523  9430.67  9697.12  9151.22  9216.18
  5775.898  5775.890  0.500  333.81  111.056  1.059463  0.102371  9334.18  9648.14  8980.18  9109.14
  5780.219  5780.210  0.500  329.846  111.007  1.075043  0.104525  8991.69  9462.04  9218.26  8943.07
  5784.716  5784.710  0.500  324.123  110.953  1.089862  0.106838  8902.23  9277.99  8879.12  8903.06
  5789.384  5789.380  0.500  328.182  110.872  1.097017  0.108145  9048.15  9583.05  8976.16  8778.98
  5794.236  5794.230  0.500  341.003  110.787  1.099304  0.108967  9350.65  9798.21  9353.36  9276.27
  5799.246  5799.240  0.500  347.903  110.743  1.107041  0.110559  9513.72  10127.3  9460.39  9426.31
  5804.438  5804.430  0.500  348.558  110.665  1.121885  0.112711  9511.23  10238.4  9481.44  9342.27
  5809.788  5809.780  0.500  342.717  110.49  1.137309  0.114965  9433.86  9776.24  9291.35  9365.31
  5815.313  5815.310  0.500  343.598  110.522  1.154509  0.117128  9368.19  9962.27  9432.38  9212.2
  5821.019  5821.010  0.500  341.522  110.396  1.170280  0.119040  9444.96  9800.21  9323.34  9134.2
  5826.888  5826.880  0.500  351.389  110.216  1.178807  0.120730  9501.43  10188.4  9514.46  9524.4
  5832.926  5832.920  0.500  354.146  110.122  1.188787  0.122656  9677.03  10254.4  9653.51  9414.34
  5839.145  5839.140  0.500  355.68  109.901  1.203270  0.125154  9619.08  10107.4  9625.52  9737.51
  5845.521  5845.520  0.500  357.593  109.687  1.220222  0.127841  9625.6  10356.5  9673.56  9567.46
  5852.085  5852.080  0.500  359.548  109.446  1.235659  0.130576  9834.61  10167.4  9764.57  9584.44
  5858.815  5858.810  0.500  358.961  109.046  1.251053  0.133228  9595.82  10249.5  9599.55  9698.48
  5865.714  5865.710  0.500  356.42  108.785  1.270356  0.136314  9643.77  10092.4  9573.51  9463.37
  5872.784  5872.780  0.500  363.3  87.7525  1.038956  0.112400  7915.38  8295.36  7839.4  7830.37
  5880.026  5880.020  0.500  362.991  109.55  1.314281  0.143068  9826.7  10339.6  9930.8  9668.6
  5887.443  5887.440  0.500  366.38  108.797  1.326017  0.145607  9753.17  10360.5  10015.8  9731.59
  5895.024  5895.020  0.500  365.927  108.235  1.342067  0.148414  9842.36  10364.6  9708.63  9690.58
  5902.788  5902.780  0.500  368.851  107.556  1.356726  0.151239  9786.34  10488.6  9790.62  9606.49
  5910.719  5910.710  0.500  369.388  106.432  1.367977  0.153651  9888.12  10201.5  9656.58  9568.47
  5918.821  5918.810  0.500  369.921  106.394  1.392768  0.157940  9920.82  10187.4  9750.62  9498.43
  5927.094  5927.080  0.500  370.915  105.775  1.409071  0.161289  9621.04  10314.5  9604.57  9693.5
  5935.531  5935.520  0.500  375.175  105.911  1.434171  0.165880  9841.29  10375.6  9972.73  9545.49
  5944.138  5944.140  0.500  382.179  98.4472  1.356216  0.158260  9399.97  9852.14  9222.23  9150.13
  5952.912  5952.920  0.500  380.602  104.827  1.470637  0.173147  9947.46  10288.5  9836.66  9824.58
  5961.875  5961.880  0.500  383.943  103.61  1.481864  0.175998  9872.63  10339.6  9777.63  9790.57
  5971.005  5971.010  0.500  380.543  102.451  1.496813  0.179383  9673.46  10215.4  9725.6  9372.38
  5980.303  5980.310  0.500  380.577  101.099  1.506397  0.182547  9465.61  10131.4  9565.52  9313.33
  5989.784  5989.780  0.500  392.208  83.3904  1.264846  0.155048  7973.86  8603.49  8155.58  7973.46
  5999.414  5999.420  0.500  392.746  99.9386  1.546849  0.190802  9836.14  10227.4  9621.51  9565.38
  6009.227  6009.240  0.500  397.064  98.4156  1.553265  0.193540  9749  10319.5  9604.47  9404.33
  6019.212  6019.220  0.500  397.626  97.0971  1.566668  0.197394  9686.33  10199.4  9375.33  9347.27
  6029.379  6029.380  0.500  393.353  95.735  1.578608  0.200998  9422.99  9833.21  9205.28  9196.19
  6039.722  6039.710  0.500  399.707  94.3386  1.589924  0.204775  9224.09  9773.18  9484.39  9226.19
  6050.199  6050.210  0.500  400.729  92.9459  1.600143  0.208144  9298.66  9748.13  9132.21  9067.1
  6060.869  6060.880  0.500  404.96  91.2182  1.602087  0.210749  9256.49  9603.01  9128.17  8952
  6071.706  6071.720  0.500  409.406  89.7705  1.611344  0.214171  9259.46  9482  8991.08  9020.03
  6082.723  6082.740  0.500  407.553  88.2601  1.619967  0.217732  8846.82  9469.97  8865  8788.91
  6093.905  6093.920  0.500  408.716  86.8095  1.630374  0.221330  8957.83  9165.83  8664.91  8691.85
  6105.268  6105.280  0.500  415.285  85.2394  1.637057  0.225091  8802.17  9131.77  8781.91  8682.82
  6116.792  6116.810  0.500  418.417  83.6253  1.642670  0.228001  8633.88  9126.74  8603.81  8625.77
  6128.498  6128.510  0.500  422.608  81.9171  1.645052  0.230795  8553.65  9104.74  8599.8  8360.65
  6140.367  6140.380  0.500  417.143  80.0774  1.645779  0.233626  8346.08  8734.53  8216.61  8106.51
  6152.417  6152.430  0.500  416.943  77.9783  1.634428  0.234488  7994.08  8560.45  7996.52  7961.44