Folder: webxdiviewer/xdidata/Co

Note: xdidata/README.md
# bmm-standards
A pretty webpage for BMM's collection of common XAFS materials

[BMM's common materials collection](./BMM-standards.html)

Plotting of the data will happen soon.

Periodic table adapted from [some guy named Daniel](https://codepen.io/gooseofmusic/pen/PjKdNQ)

[This](https://www.coderstool.com/scss-to-css) is a helpful tool for
dealing with Sassy CSS.

File: Co-K-Co3O4.xdi
# XDI/1.0 BlueSky/1.10.0 BMM/2023-1.0-py310-tiled
# Beamline.name: BMM (06BM) -- Beamline for Materials Measurement (NIST)
# Beamline.xray_source: NSLS-II three-pole wiggler
# Beamline.collimation: paraboloid mirror, 5 nm Rh on 30 nm Pt
# Beamline.focusing: not in use
# Beamline.harmonic_rejection: flat mirror, Si stripe, pitch = 7.0 mrad relative to beam
# Beamline.software: Bluesky 1.10.0, Ophyd 1.7.0, DataBroker 2.0.0b13, Python 3.10.8, 2023-1.0-py310-tiled
# Detector.I0: 10 cm N2
# Detector.I1: 25 cm N2
# Detector.I2: 25 cm N2
# Element.symbol: Co
# Element.edge: K
# Element.reference: Co
# Element.reference_material: Co foil
# Facility.name: NSLS-II
# Facility.energy: 3.0
# Facility.current: 399.9
# Facility.mode: top-off
# Facility.GUP: 301027
# Facility.SAF: 310583
# Facility.cycle: 2023-2
# Mono.name: Si(111)
# Mono.d_spacing: 3.13519
# Mono.encoder_resolution: 0.0000050 deg/ct
# Mono.angle_offset: 16.0754 deg
# Mono.scan_mode: pseudo channel cut
# Mono.scan_type: step
# Mono.direction: forward in energy
# Sample.name: Co3O4
# Sample.prep: powder on tape
# Sample.x: 117.785 mm
# Sample.y: 114.695 mm
# Sample.SDD_position: 205.000 mm
# Scan.experimenters: Bruce Ravel
# Scan.edge_energy: 7708.9
# Scan.start_time: 2023-06-23T15:02:25
# Scan.end_time: 2023-06-23T15:11:04
# Scan.transient_id: 84833
# Scan.uid: 5330c073-0a46-423d-ad58-076c11cb520a
# Scan.plot_hint: ln(I0/It)  --  ln($5/$6)
# Column.1: energy eV
# Column.2: requested_energy eV
# Column.3: measurement_time seconds
# Column.4: xmu
# Column.5: I0 nA
# Column.6: It nA
# Column.7: Ir nA
# ///////////
# BMM standards collection
# -----------
# energy  requested_energy  measurement_time  xmu  I0  It  Ir
  7508.901  7508.900  0.500  1.239818  147.663  42.7393  16.3264
  7538.927  7538.900  0.500  1.217530  147.299  43.5945  16.8442
  7568.879  7568.900  0.500  1.195635  146.862  44.4275  17.3609
  7598.918  7598.900  0.500  1.173789  146.245  45.2179  17.8654
  7628.918  7628.900  0.500  1.152511  145.785  46.0453  18.3846
  7658.906  7658.900  0.500  1.132110  145.306  46.8398  18.8926
  7680.903  7680.900  0.500  1.118158  144.851  47.3491  19.2211
  7686.901  7686.900  0.500  1.114801  144.455  47.3785  19.2588
  7692.891  7692.900  0.500  1.111909  144.722  47.6035  19.3616
  7698.896  7698.900  0.500  1.109733  144.539  47.6467  19.3676
  7699.779  7699.800  0.500  1.109496  144.483  47.6398  19.3598
  7700.676  7700.700  0.500  1.109534  144.464  47.6316  19.3482
  7701.585  7701.600  0.500  1.109380  144.434  47.629  19.3341
  7702.480  7702.500  0.500  1.109362  145.01  47.8198  19.3959
  7703.384  7703.400  0.500  1.109564  144.959  47.7933  19.3685
  7704.285  7704.300  0.500  1.109808  144.91  47.7655  19.3283
  7705.192  7705.200  0.500  1.110234  144.782  47.703  19.2644
  7706.091  7706.100  0.500  1.110956  144.224  47.4849  19.1195
  7706.990  7707.000  0.500  1.112394  141.415  46.4932  18.6301
  7707.887  7707.900  0.500  1.115365  144.841  47.4782  18.8564
  7708.795  7708.800  0.500  1.123429  145.011  47.1522  18.2974
  7709.697  7709.700  0.500  1.147308  144.933  46.0148  16.8531
  7710.592  7710.600  0.500  1.157293  144.882  45.5417  15.5351
  7711.495  7711.500  0.500  1.148055  144.875  45.9619  14.7303
  7712.393  7712.400  0.500  1.151893  144.84  45.775  14.0121
  7713.299  7713.300  0.500  1.154771  144.797  45.6298  13.6443
  7714.188  7714.200  0.500  1.158606  144.765  45.445  13.4657
  7715.094  7715.100  0.500  1.166867  144.713  45.0551  13.2286
  7716.006  7716.000  0.500  1.186397  144.697  44.1788  12.6747
  7716.895  7716.900  0.500  1.223190  144.642  42.5667  11.81
  7717.792  7717.800  0.500  1.283095  144.613  40.0834  10.7556
  7718.699  7718.700  0.500  1.364763  144.549  36.9237  9.580225
  7719.604  7719.600  0.500  1.441637  144.442  34.1663  8.539192
  7720.499  7720.500  0.500  1.500708  143.851  32.0748  7.693816
  7721.397  7721.400  0.500  1.566209  140.814  29.4069  6.727869
  7722.300  7722.300  0.500  1.649892  144.385  27.7321  6.008201
  7723.201  7723.200  0.500  1.750971  144.602  25.1037  5.145497
  7724.094  7724.100  0.500  1.838031  144.565  23.0046  4.461799
  7724.998  7725.000  0.500  1.890656  144.518  21.8182  4.054739
  7725.899  7725.900  0.500  1.938081  144.5  20.8051  3.777894
  7726.793  7726.800  0.500  1.988415  144.463  19.7787  3.565390
  7727.700  7727.700  0.500  2.059333  144.428  18.4202  3.327285
  7728.594  7728.600  0.500  2.169587  144.424  16.4968  2.999266
  7729.486  7729.500  0.500  2.294219  144.392  14.5605  2.665435
  7730.391  7730.400  0.500  2.346952  144.371  13.8106  2.534262
  7731.297  7731.300  0.500  2.299914  144.34  14.4726  2.639384
  7732.279  7732.200  0.500  2.191675  144.278  16.1201  2.892071
  7733.100  7733.100  0.500  2.097180  144.221  17.7107  3.117957
  7733.871  7733.900  0.500  2.036008  144.153  18.819  3.266002
  7736.894  7736.910  0.500  1.963516  144.011  20.214  3.564768
  7740.088  7740.100  0.500  1.941072  142.303  20.4275  3.693045
  7743.456  7743.460  0.500  1.932418  143.985  20.8487  3.855828
  7746.978  7746.980  0.500  1.906271  143.895  21.3876  3.982401
  7750.686  7750.680  0.500  1.839511  143.797  22.8487  4.165576
  7754.554  7754.550  0.500  1.796518  143.718  23.8393  4.125439
  7758.597  7758.600  0.500  1.760613  143.621  24.6941  4.098084
  7762.808  7762.810  0.500  1.756126  143.506  24.7854  4.225266
  7767.193  7767.190  0.500  1.775270  143.677  24.3442  4.420075
  7771.758  7771.750  0.500  1.814066  143.553  23.3977  4.433814
  7776.489  7776.480  0.500  1.852515  143.427  22.4954  4.303728
  7781.386  7781.380  0.500  1.894324  143.306  21.556  4.164786
  7786.456  7786.450  0.500  1.934604  143.193  20.6887  3.944522
  7791.705  7791.690  0.500  1.918657  143.074  21.0038  3.924230
  7797.110  7797.110  0.500  1.900116  142.946  21.3778  3.885077
  7802.705  7802.690  0.500  1.855969  142.817  22.3225  3.890845
  7808.449  7808.450  0.500  1.817954  142.685  23.166  3.929662
  7814.383  7814.380  0.500  1.809653  142.522  23.3325  4.073808
  7820.492  7820.480  0.500  1.812360  142.395  23.2486  4.263872
  7826.757  7826.750  0.500  1.810522  142.259  23.2692  4.450732
  7833.198  7833.190  0.500  1.820058  141.991  23.0049  4.615864
  7839.815  7839.800  0.500  1.813221  140.994  23.0001  4.606144
  7846.603  7846.590  0.500  1.791724  140.711  23.4526  4.563391
  7853.568  7853.550  0.500  1.738992  141.516  24.8641  4.811961
  7860.672  7860.670  0.500  1.740388  141.415  24.8116  4.785628
  7867.982  7867.970  0.500  1.780542  141.243  23.806  4.327755
  7875.462  7875.450  0.500  1.810524  141.046  23.0707  4.084383
  7883.103  7883.090  0.500  1.805692  140.879  23.155  4.178929
  7890.920  7890.900  0.500  1.795797  140.679  23.352  4.560897
  7898.904  7898.890  0.500  1.769940  140.102  23.8655  5.007828
  7907.068  7907.050  0.500  1.743194  140.259  24.5398  5.064921
  7915.386  7915.370  0.500  1.722599  140.016  25.0071  4.996694
  7923.891  7923.870  0.500  1.699455  139.822  25.557  5.087064
  7932.566  7932.550  0.500  1.705883  139.536  25.3413  5.116356
  7941.411  7941.390  0.500  1.721710  139.546  24.9453  5.065418
  7950.422  7950.400  0.500  1.710980  138.63  25.0488  4.926009
  7959.607  7959.590  0.500  1.694741  138.85  25.4994  4.954490
  7968.965  7968.950  0.500  1.682405  138.531  25.7566  5.161687
  7978.490  7978.470  0.500  1.671154  137.962  25.9411  5.433452
  7988.189  7988.170  0.500  1.671939  137.653  25.8626  5.493900
  7998.063  7998.050  0.500  1.660349  137.404  26.1167  5.588641
  8008.113  8008.090  0.500  1.651557  137.202  26.3086  5.643105
  8018.318  8018.300  0.500  1.653106  137.129  26.254  5.596785
  8028.707  8028.690  0.500  1.638263  136.857  26.5938  5.656999
  8039.265  8039.250  0.500  1.623594  136.536  26.9233  5.693346
  8049.999  8049.980  0.500  1.614027  136.192  27.1137  5.745764
  8060.896  8060.880  0.500  1.595614  136.029  27.5846  5.968284
  8071.974  8071.950  0.500  1.594521  135.575  27.5225  6.031368
  8083.206  8083.190  0.500  1.587899  135.287  27.6465  6.117544
  8094.628  8094.610  0.500  1.565028  135.106  28.2482  6.353880
  8106.209  8106.190  0.500  1.561577  134.628  28.2456  6.393941
  8117.975  8117.950  0.500  1.556199  134.2  28.3077  6.422008
  8129.897  8129.880  0.500  1.552271  133.85  28.345  6.429211
  8142.023  8141.980  0.500  1.542988  133.414  28.5161  6.471680
  8154.269  8154.250  0.500  1.528885  132.98  28.8271  6.569009
  8166.692  8166.690  0.500  1.519476  132.577  29.0113  6.700329
  8179.319  8179.310  0.500  1.509045  132.114  29.2132  6.815333
  8192.106  8192.090  0.500  1.491928  131.654  29.614  6.949736
  8205.067  8205.050  0.500  1.481851  131.192  29.8091  7.068978
  8218.201  8218.180  0.500  1.473759  130.701  29.9387  7.166571
  8231.520  8231.480  0.500  1.469321  130.193  29.9551  7.232661
  8244.971  8244.950  0.500  1.459514  129.738  30.1445  7.306976
  8258.626  8258.600  0.500  1.446056  129.178  30.4211  7.381699
  8272.397  8272.410  0.500  1.434390  128.694  30.6628  7.467596
  8286.446  8286.400  0.500  1.424882  128.12  30.8175  7.588965
  8300.532  8300.560  0.500  1.413619  127.518  31.0201  7.710021
  8314.845  8314.890  0.500  1.403955  125.521  30.831  7.720319
  8329.373  8329.390  0.500  1.396289  126.528  31.3175  7.901981
  8344.031  8344.060  0.500  1.388120  125.675  31.3615  7.962317
  8358.909  8358.900  0.500  1.375599  124.687  31.507  8.050349
  8373.891  8373.920  0.500  1.363929  124.171  31.7448  8.164069
  8389.079  8389.100  0.500  1.350821  123.414  31.9675  8.265338
  8404.433  8404.460  0.500  1.339726  122.689  32.1345  8.362353
  8420.012  8419.990  0.500  1.330175  121.96  32.2501  8.449865
  8435.663  8435.690  0.500  1.319996  121.162  32.3667  8.547287
  8451.533  8451.560  0.500  1.311520  120.414  32.4408  8.636714
  8467.603  8467.610  0.500  1.301668  119.557  32.5289  8.726952
  8483.841  8483.820  0.500  1.290311  118.707  32.6665  8.831703
  8500.215  8500.210  0.500  1.278604  117.798  32.798  8.931605
  8516.809  8516.770  0.500  1.267854  116.781  32.8664  9.014173
  8533.471  8533.500  0.500  1.257118  115.334  32.8093  9.054981
  8550.359  8550.400  0.500  1.246139  114.973  33.0677  9.194784
  8561.720  8561.760  0.500  1.238686  114.208  33.0934  9.243500

File: Co-K-CobaltAluminate.xdi
# XDI/1.0 BlueSky/1.10.0 BMM/2023-1.0-py310-tiled
# Beamline.name: BMM (06BM) -- Beamline for Materials Measurement (NIST)
# Beamline.xray_source: NSLS-II three-pole wiggler
# Beamline.collimation: paraboloid mirror, 5 nm Rh on 30 nm Pt
# Beamline.focusing: not in use
# Beamline.harmonic_rejection: flat mirror, Si stripe, pitch = 7.0 mrad relative to beam
# Beamline.software: Bluesky 1.10.0, Ophyd 1.7.0, DataBroker 2.0.0b13, Python 3.10.8, 2023-1.0-py310-tiled
# Detector.I0: 10 cm N2
# Detector.I1: 25 cm N2
# Detector.I2: 25 cm N2
# Element.symbol: Co
# Element.edge: K
# Element.reference: Co
# Element.reference_material: Co foil
# Facility.name: NSLS-II
# Facility.energy: 3.0
# Facility.current: 399.4
# Facility.mode: top-off
# Facility.GUP: 301027
# Facility.SAF: 310583
# Facility.cycle: 2023-2
# Mono.name: Si(111)
# Mono.d_spacing: 3.13519
# Mono.encoder_resolution: 0.0000050 deg/ct
# Mono.angle_offset: 16.0754 deg
# Mono.scan_mode: pseudo channel cut
# Mono.scan_type: step
# Mono.direction: forward in energy
# Sample.name: CoAlO3
# Sample.prep: powder on tape
# Sample.x: 117.785 mm
# Sample.y: 114.695 mm
# Sample.SDD_position: 205.000 mm
# Scan.experimenters: Bruce Ravel
# Scan.edge_energy: 7708.9
# Scan.start_time: 2023-06-23T15:11:46
# Scan.end_time: 2023-06-23T15:20:04
# Scan.transient_id: 84838
# Scan.uid: fd264746-c7ac-4669-8114-d70a649346df
# Scan.plot_hint: ln(I0/It)  --  ln($5/$6)
# Column.1: energy eV
# Column.2: requested_energy eV
# Column.3: measurement_time seconds
# Column.4: xmu
# Column.5: I0 nA
# Column.6: It nA
# Column.7: Ir nA
# ///////////
# BMM standards collection
# -----------
# energy  requested_energy  measurement_time  xmu  I0  It  Ir
  7508.899  7508.900  0.500  1.171692  147.423  45.6778  17.4648
  7538.920  7538.900  0.500  1.150318  147.05  46.5467  17.9988
  7568.901  7568.900  0.500  1.128740  146.642  47.43  18.5462
  7598.920  7598.900  0.500  1.107875  145.991  48.2148  19.0627
  7628.913  7628.900  0.500  1.087536  145.528  49.0495  19.5983
  7658.914  7658.900  0.500  1.067262  145.035  49.8845  20.1327
  7680.901  7680.900  0.500  1.052910  144.566  50.4422  20.4871
  7686.896  7686.900  0.500  1.049189  144.171  50.4919  20.534
  7692.894  7692.900  0.500  1.045573  144.45  50.7728  20.6635
  7698.901  7698.900  0.500  1.042284  144.244  50.8674  20.6867
  7699.776  7699.800  0.500  1.041908  144.222  50.8788  20.6858
  7700.676  7700.700  0.500  1.041532  144.196  50.8889  20.6818
  7701.577  7701.600  0.500  1.041174  144.154  50.8923  20.6718
  7702.483  7702.500  0.500  1.040741  144.061  50.8815  20.6489
  7703.381  7703.400  0.500  1.040444  144.042  50.8897  20.6318
  7704.288  7704.300  0.500  1.040169  143.958  50.8739  20.5968
  7705.189  7705.200  0.500  1.040056  143.868  50.8478  20.5451
  7706.086  7706.100  0.500  1.039985  143.345  50.6666  20.4128
  7706.988  7707.000  0.500  1.040286  140.458  49.6312  19.8992
  7707.895  7707.900  0.500  1.041309  143.901  50.7961  20.1824
  7708.797  7708.800  0.500  1.045274  144.053  50.6483  19.6723
  7709.695  7709.700  0.500  1.057384  143.98  50.0134  18.3426
  7710.595  7710.600  0.500  1.057379  143.927  49.9951  17.0827
  7711.495  7711.500  0.500  1.048869  143.883  50.4071  16.1742
  7712.401  7712.400  0.500  1.047063  143.835  50.4814  15.4668
  7713.299  7713.300  0.500  1.046381  144.37  50.7037  15.1705
  7714.195  7714.200  0.500  1.048416  144.359  50.5968  14.9996
  7715.102  7715.100  0.500  1.053008  144.322  50.3522  14.7935
  7716.006  7716.000  0.500  1.062698  144.275  49.8501  14.3137
  7716.890  7716.900  0.500  1.081077  144.224  48.925  13.5859
  7717.802  7717.800  0.500  1.117591  144.177  47.1555  12.657
  7718.707  7718.700  0.500  1.173068  144.129  44.5958  11.5778
  7719.594  7719.600  0.500  1.215915  143.998  42.6866  10.6805
  7720.502  7720.500  0.500  1.230557  143.427  41.8992  10.0575
  7721.397  7721.400  0.500  1.242596  140.357  40.5119  9.274065
  7722.295  7722.300  0.500  1.268690  143.907  40.4666  8.774625
  7723.198  7723.200  0.500  1.294801  144.121  39.4823  8.098811
  7724.107  7724.100  0.500  1.304514  144.077  39.0886  7.584516
  7725.000  7725.000  0.500  1.308004  144.048  38.9448  7.243261
  7725.891  7725.900  0.500  1.322709  144.007  38.3652  6.973854
  7726.801  7726.800  0.500  1.355054  143.938  37.1263  6.697303
  7727.705  7727.700  0.500  1.397456  143.933  35.5838  6.433224
  7728.597  7728.600  0.500  1.425379  143.886  34.5927  6.296822
  7729.494  7729.500  0.500  1.428074  143.858  34.4928  6.321108
  7730.402  7730.400  0.500  1.411379  143.833  35.0676  6.443021
  7731.299  7731.300  0.500  1.385373  143.791  35.9809  6.572936
  7732.197  7732.200  0.500  1.358041  143.763  36.9707  6.650678
  7733.095  7733.100  0.500  1.341699  143.725  37.57  6.623619
  7733.904  7733.900  0.500  1.333372  143.709  37.8799  6.579395
  7736.899  7736.910  0.500  1.304796  143.549  38.9344  6.872688
  7740.131  7740.100  0.500  1.304307  141.603  38.4254  6.955740
  7743.446  7743.460  0.500  1.317476  143.473  38.4237  7.111908
  7746.978  7746.980  0.500  1.273608  143.38  40.1206  7.478388
  7750.683  7750.680  0.500  1.240978  143.277  41.4216  7.561078
  7754.551  7754.550  0.500  1.241820  143.193  41.3624  7.168146
  7758.597  7758.600  0.500  1.250134  143.101  40.9936  6.809235
  7762.805  7762.810  0.500  1.245957  143.009  41.1387  7.018229
  7767.188  7767.190  0.500  1.246017  142.889  41.1017  7.468518
  7771.753  7771.750  0.500  1.257425  142.779  40.6042  7.700340
  7776.487  7776.480  0.500  1.268053  142.659  40.1413  7.686918
  7781.397  7781.380  0.500  1.282692  142.554  39.5287  7.644397
  7786.456  7786.450  0.500  1.279227  142.407  39.6252  7.563106
  7791.700  7791.690  0.500  1.264674  142.317  40.1804  7.514379
  7797.123  7797.110  0.500  1.256571  142.173  40.4665  7.362325
  7802.692  7802.690  0.500  1.252236  142.072  40.6135  7.087596
  7808.462  7808.450  0.500  1.239819  141.919  41.0766  6.973583
  7814.389  7814.380  0.500  1.227845  141.788  41.5329  7.258993
  7820.479  7820.480  0.500  1.232672  141.641  41.2902  7.579527
  7826.762  7826.750  0.500  1.231054  141.507  41.3179  7.911933
  7833.198  7833.190  0.500  1.218462  141.266  41.7703  8.388396
  7839.804  7839.800  0.500  1.207742  140.308  41.9341  8.407599
  7846.603  7846.590  0.500  1.204199  139.944  41.9736  8.176167
  7853.555  7853.550  0.500  1.204539  140.801  42.2163  8.177352
  7860.687  7860.670  0.500  1.207383  140.688  42.0629  8.118384
  7867.976  7867.970  0.500  1.207645  140.519  42.0011  7.642267
  7875.462  7875.450  0.500  1.204070  140.751  42.2212  7.480720
  7883.101  7883.090  0.500  1.194748  140.602  42.5714  7.691258
  7890.909  7890.900  0.500  1.183622  140.411  42.9894  8.402058
  7898.907  7898.890  0.500  1.175941  139.844  43.1459  9.062224
  7907.060  7907.050  0.500  1.169485  139.987  43.4696  8.980544
  7915.389  7915.370  0.500  1.166818  139.791  43.5248  8.705989
  7923.894  7923.870  0.500  1.159275  139.569  43.7846  8.723648
  7932.571  7932.550  0.500  1.151967  139.299  44.0204  8.893679
  7941.400  7941.390  0.500  1.144243  139.284  44.357  9.017328
  7950.420  7950.400  0.500  1.140095  138.383  44.2532  8.712711
  7959.601  7959.590  0.500  1.132399  138.604  44.6665  8.686841
  7968.965  7968.950  0.500  1.127719  138.287  44.7732  8.980949
  7978.482  7978.470  0.500  1.124943  137.756  44.7253  9.375983
  7988.186  7988.170  0.500  1.117696  137.417  44.9397  9.555646
  7998.068  7998.050  0.500  1.109489  137.142  45.2194  9.686951
  8008.115  8008.090  0.500  1.101372  136.978  45.5335  9.776203
  8018.315  8018.300  0.500  1.095787  136.924  45.7706  9.765983
  8028.707  8028.690  0.500  1.087537  136.636  46.0526  9.805096
  8039.274  8039.250  0.500  1.079451  136.303  46.3132  9.802368
  8049.996  8049.980  0.500  1.073599  135.961  46.4684  9.857093
  8060.896  8060.880  0.500  1.066422  135.833  46.7587  10.1265
  8071.974  8071.950  0.500  1.058352  135.307  46.9551  10.3004
  8083.209  8083.190  0.500  1.051366  135.051  47.1948  10.4528
  8094.644  8094.610  0.500  1.043938  134.859  47.4791  10.6887
  8106.204  8106.190  0.500  1.037779  134.392  47.6072  10.7857
  8117.972  8117.950  0.500  1.030443  134.022  47.8257  10.8606
  8129.891  8129.880  0.500  1.024047  133.604  47.9825  10.8938
  8142.000  8141.980  0.500  1.015704  133.134  48.2143  10.9538
  8154.274  8154.250  0.500  1.008184  132.727  48.4295  11.046
  8166.701  8166.690  0.500  1.000195  132.344  48.6773  11.2501
  8179.324  8179.310  0.500  0.991735  131.858  48.9102  11.4204
  8192.100  8192.090  0.500  0.983910  131.415  49.1291  11.5391
  8205.058  8205.050  0.500  0.976859  130.943  49.2989  11.7004
  8218.192  8218.180  0.500  0.968811  130.437  49.5054  11.8623
  8231.506  8231.480  0.500  0.961082  129.885  49.6783  12.0054
  8244.960  8244.950  0.500  0.953361  129.456  49.898  12.1059
  8258.614  8258.600  0.500  0.945462  128.927  50.0881  12.1644
  8272.436  8272.410  0.500  0.937349  128.365  50.2762  12.2536
  8286.422  8286.400  0.500  0.929777  127.779  50.427  12.4288
  8300.576  8300.560  0.500  0.921632  127.213  50.6142  12.5911
  8314.901  8314.890  0.500  0.913455  125.157  50.2049  12.5828
  8329.418  8329.390  0.500  0.905448  125.974  50.9388  12.8642
  8344.072  8344.060  0.500  0.897606  125.109  50.9873  12.9558
  8358.882  8358.900  0.500  0.889173  124.131  51.0174  13.0467
  8373.894  8373.920  0.500  0.880822  123.605  51.2272  13.1835
  8389.088  8389.100  0.500  0.872653  122.865  51.3383  13.2812
  8404.445  8404.460  0.500  0.864389  122.103  51.4429  13.396
  8419.963  8419.990  0.500  0.856269  121.438  51.5801  13.5248
  8435.675  8435.690  0.500  0.848140  120.641  51.6596  13.6529
  8451.545  8451.560  0.500  0.839945  119.819  51.7302  13.7818
  8467.627  8467.610  0.500  0.831575  119.029  51.8211  13.914
  8483.798  8483.820  0.500  0.823122  118.133  51.8675  14.0322
  8500.268  8500.210  0.500  0.814705  117.275  51.926  14.1503
  8516.825  8516.770  0.500  0.806124  116.219  51.9017  14.2444
  8533.521  8533.500  0.500  0.797927  114.809  51.694  14.2792
  8550.422  8550.400  0.500  0.789429  114.45  51.972  14.4586
  8561.742  8561.760  0.500  0.783726  113.712  51.9323  14.5162