Folder: webxdiviewer/xdidata/Cr (part 4)

File: Cr-K-YCrO3.xdi
# XDI/1.0 BlueSky/1.5.3
# Beamline.name: 6BM
# Beamline.xray_source: NSLS-II three-pole wiggler
# Beamline.collimation: paraboloid mirror, 5 nm Rh on 30 nm Pt
# Beamline.focusing: not in use
# Beamline.harmonic_rejection: flat mirror, Si stripe, pitch = 7.0 mrad relative to beam
# Detector.i0: 10 cm N2
# Detector.I1: 25 cm N2
# Detector.I2: 25 cm N2
# Element.symbol: Cr
# Element.edge: K
# Facility.name: NSLS-II
# Facility.energy: 3.0
# Facility.current: 400.0
# Facility.mode: top-off
# Facility.GUP: 305832
# Facility.SAF: 305669
# Facility.cycle: 2020-1
# Mono.name: Si(111)
# Mono.d_spacing: 3.13532
# Mono.encoder_resolution: 0.0000050 deg/ct
# Mono.angle_offset: 16.0581 deg
# Mono.scan_mode: fixed exit
# Mono.scan_type: step
# Mono.direction: forward in energy
# Sample.name: YCrO3
# Sample.prep: Powder in polyethylene glycol pellet
# Sample.x_position: -2.590 mm
# Sample.y_position: 103.444 mm
# Scan.experimenters: Neil Hyatt, Martin Stennett, Dan Austin, Seb Lawson
# Scan.edge_energy: 5989.2
# Scan.start_time: 2020-03-04T02:31:25
# Scan.end_time: 2020-03-04T02:42:58
# Scan.transient_id: 22728
# Scan.uid: 666a0165-5bbd-4a16-b1b7-2e28700b09cd
# Scan.plot_hint: ln(i0/itrans)  --  ln($5/$6)
# Column.1: energy eV
# Column.2: requested_energy eV
# Column.3: measurement_time seconds
# Column.4: mutrans
# Column.5: i0
# Column.6: itrans
# Column.7: irefer
# ///////////
#
# -----------
#  energy  requested_energy  measurement_time  mutrans  i0  itrans  irefer
5789.220  5789.200  1.000  2.449319  82.2612  7.103448  1.027889
5819.212  5819.200  1.000  2.406372  82.6502  7.450231  1.107219
5849.210  5849.200  1.000  2.363709  82.8478  7.793542  1.194021
5879.204  5879.200  1.000  2.322153  83.263  8.164960  1.281411
5909.197  5909.200  1.000  2.281451  82.2783  8.403574  1.359275
5939.194  5939.200  1.000  2.241868  80.8681  8.593028  1.429983
5961.193  5961.200  1.000  2.213559  81.9645  8.959613  1.517261
5967.200  5967.200  1.000  2.206137  81.6766  8.994654  1.532285
5973.201  5973.200  1.000  2.198734  81.7245  9.066800  1.546882
5979.205  5979.200  1.000  2.191966  81.4238  9.094787  1.561805
5979.939  5979.950  1.000  2.191078  81.3916  9.099266  1.561420
5980.690  5980.700  1.000  2.190153  81.3302  9.100822  1.560382
5981.441  5981.450  1.000  2.189570  81.2511  9.097268  1.561904
5982.195  5982.200  1.000  2.188609  81.1761  9.097609  1.564298
5982.946  5982.950  1.000  2.187798  81.1048  9.097000  1.562058
5983.694  5983.700  1.000  2.187137  81.0088  9.092234  1.562125
5984.450  5984.450  1.000  2.186583  80.9053  9.085652  1.561499
5985.200  5985.200  1.000  2.185877  80.7704  9.076906  1.559814
5985.947  5985.950  1.000  2.185501  80.6497  9.066755  1.555082
5986.698  5986.700  1.000  2.184996  80.4472  9.048556  1.549647
5987.450  5987.450  1.000  2.184785  80.2171  9.024582  1.544166
5988.202  5988.200  1.000  2.184753  79.8939  8.988509  1.531516
5988.947  5988.950  1.000  2.185831  79.3207  8.914400  1.491114
5989.699  5989.700  1.000  2.189553  78.1059  8.745275  1.414345
5990.454  5990.450  1.000  2.198756  74.4287  8.257206  1.304994
5991.203  5991.200  1.000  2.197911  62.5793  6.948485  1.080375
5991.949  5991.950  1.000  2.197525  63.5713  7.061353  1.074599
5992.700  5992.700  1.000  2.202630  79.326  8.766484  1.318072
5993.452  5993.450  1.000  2.214442  81.1396  8.861613  1.321246
5994.201  5994.200  1.000  2.228563  81.2582  8.750128  1.297921
5994.952  5994.950  1.000  2.231237  81.1883  8.719260  1.291779
5995.706  5995.700  1.000  2.237574  81.0801  8.652629  1.287176
5996.449  5996.450  1.000  2.253644  80.934  8.499353  1.262581
5997.199  5997.200  1.000  2.260594  80.8209  8.428692  1.239707
5997.953  5997.950  1.000  2.265316  80.7451  8.381110  1.207862
5998.702  5998.700  1.000  2.276006  80.6366  8.280856  1.167298
5999.445  5999.450  1.000  2.288446  80.5591  8.170617  1.125964
6000.204  6000.200  1.000  2.310067  80.7871  8.018495  1.085939
6000.955  6000.950  1.000  2.349174  80.716  7.704176  1.024109
6001.698  6001.700  1.000  2.397630  80.6644  7.335075  0.963317
6002.452  6002.450  1.000  2.452494  80.6181  6.939497  0.901655
6003.206  6003.200  1.000  2.516609  80.5913  6.506372  0.841683
6003.951  6003.950  1.000  2.583036  80.535  6.083959  0.779543
6004.700  6004.700  1.000  2.653244  80.5026  5.669186  0.716451
6005.453  6005.450  1.000  2.721405  80.4623  5.292990  0.666765
6006.205  6006.200  1.000  2.779188  80.4487  4.994970  0.621397
6006.948  6006.950  1.000  2.806594  80.3691  4.855127  0.599207
6007.701  6007.700  1.000  2.801131  80.3586  4.881085  0.596695
6008.455  6008.450  1.000  2.783563  80.3193  4.965165  0.602820
6009.198  6009.200  1.000  2.760351  80.2466  5.077166  0.609324
6009.953  6009.950  1.000  2.735116  80.19  5.203245  0.624389
6010.707  6010.700  1.000  2.711241  80.1818  5.328424  0.646660
6011.452  6011.450  1.000  2.687767  80.1689  5.454107  0.670338
6012.200  6012.200  1.000  2.669078  80.0518  5.548879  0.698281
6012.956  6012.950  1.000  2.660219  80.0538  5.598396  0.708365
6013.704  6013.700  1.000  2.664992  80.0059  5.568407  0.709045
6014.445  6014.450  1.000  2.675801  79.9627  5.505567  0.707042
6015.202  6015.200  1.000  2.684861  79.9467  5.454819  0.699977
6015.955  6015.950  1.000  2.689072  79.9033  5.428947  0.690881
6016.697  6016.700  1.000  2.686987  79.8276  5.435128  0.692640
6017.452  6017.450  1.000  2.682595  79.8123  5.458003  0.688742
6018.205  6018.200  1.000  2.680847  79.7555  5.463660  0.684962
6018.953  6018.950  1.000  2.683383  79.7325  5.448244  0.682103
6021.385  6021.380  1.000  2.684863  79.6647  5.435567  0.683550
6024.790  6024.780  1.000  2.666296  79.5245  5.527687  0.699250
6028.371  6028.360  1.000  2.577282  79.3359  6.027962  0.747507
6032.119  6032.110  1.000  2.522146  79.4633  6.379882  0.787202
6036.036  6036.030  1.000  2.504892  79.2254  6.471477  0.797867
6040.140  6040.130  1.000  2.496816  79.0894  6.512759  0.798517
6044.399  6044.390  1.000  2.506798  78.8244  6.426468  0.798219
6048.835  6048.830  1.000  2.542603  78.6108  6.183629  0.779546
6053.444  6053.440  1.000  2.555962  78.3087  6.078123  0.789135
6058.218  6058.210  1.000  2.543506  77.9355  6.124984  0.804215
6063.177  6063.170  1.000  2.542714  77.4999  6.095574  0.807622
6068.297  6068.290  1.000  2.552583  77.2318  6.014831  0.777396
6073.586  6073.580  1.000  2.558138  76.9219  5.957514  0.765829
6079.044  6079.040  1.000  2.551706  76.5584  5.967623  0.795825
6084.687  6084.680  1.000  2.535926  76.1969  6.033910  0.825704
6090.496  6090.490  1.000  2.510838  75.8006  6.155022  0.821447
6096.473  6096.470  1.000  2.483099  75.3157  6.287659  0.807989
6102.627  6102.620  1.000  2.468511  74.8069  6.336958  0.808305
6108.951  6108.940  1.000  2.461533  74.3302  6.340670  0.852327
6115.443  6115.430  1.000  2.454032  73.7952  6.342430  0.877324
6122.091  6122.100  1.000  2.453273  73.1813  6.294440  0.871777
6128.953  6128.940  1.000  2.449020  72.5296  6.264969  0.881468
6135.952  6135.940  1.000  2.433125  71.8686  6.307341  0.894259
6143.136  6143.120  1.000  2.424906  71.0743  6.289113  0.893856
6150.467  6150.470  1.000  2.425879  70.1303  6.199542  0.872222
6157.979  6157.990  1.000  2.423097  68.5542  6.077101  0.853259
6165.684  6165.690  1.000  2.415338  64.5897  5.770258  0.799458
6173.536  6173.550  1.000  2.401020  68.2695  6.186955  0.876465
6181.579  6181.590  1.000  2.381163  66.9841  6.192208  0.903356
6189.787  6189.800  1.000  2.364758  65.7548  6.179109  0.911149
6198.166  6198.180  1.000  2.352183  64.4898  6.136927  0.919524
6206.719  6206.730  1.000  2.337793  63.1898  6.100374  0.921824
6215.440  6215.450  1.000  2.327941  62.0364  6.048312  0.928053
6224.341  6224.340  1.000  2.321947  60.6312  5.946854  0.909439
6233.400  6233.410  1.000  2.309435  59.1365  5.873279  0.891179
6242.645  6242.650  1.000  2.295615  57.5929  5.799575  0.873455
6252.044  6252.050  1.000  2.285836  56.0477  5.699436  0.878070
6261.612  6261.630  1.000  2.278803  54.4448  5.575515  0.880766
6271.362  6271.380  1.000  2.268266  52.7868  5.462986  0.871009
6281.298  6281.310  1.000  2.253847  51.1501  5.370483  0.864284
6291.388  6291.400  1.000  2.238225  49.5292  5.282168  0.857555
6301.657  6301.670  1.000  2.224735  47.8797  5.175610  0.848983
6312.086  6312.100  1.000  2.210038  46.2583  5.074373  0.838099
6322.696  6322.710  1.000  2.197333  44.6396  4.959416  0.815342
6333.473  6333.490  1.000  2.186353  43.0961  4.840794  0.802159
6344.425  6344.440  1.000  2.172609  41.5709  4.734098  0.794560
6355.552  6355.560  1.000  2.160152  40.0899  4.622669  0.783627
6366.845  6366.860  1.000  2.146604  38.6609  4.518706  0.779322
6378.304  6378.320  1.000  2.133638  37.2881  4.415122  0.770675
6389.948  6389.960  1.000  2.121612  35.9628  4.309716  0.756127
6401.760  6401.770  1.000  2.111636  34.6761  4.197191  0.742079
6413.743  6413.750  1.000  2.098739  33.4746  4.104354  0.734033
6425.885  6425.900  1.000  2.083947  32.3266  4.022663  0.725820
6438.218  6438.220  1.000  2.069533  31.2088  3.939943  0.714325
6450.704  6450.720  1.000  2.054534  30.1327  3.861582  0.706999
6463.371  6463.380  1.000  2.039385  29.0981  3.785910  0.701806
6476.206  6476.220  1.000  2.026550  28.2067  3.717343  0.693189
6489.221  6489.230  1.000  2.014000  27.3653  3.652001  0.687533
6502.396  6502.410  1.000  2.000537  26.5234  3.587630  0.683393
6515.751  6515.760  1.000  1.987088  25.7255  3.526810  0.677206
6529.266  6529.280  1.000  1.972513  24.9504  3.470770  0.672182
6542.964  6542.980  1.000  1.957984  24.2456  3.422082  0.668720
6556.826  6556.840  1.000  1.944678  23.5598  3.369834  0.667741
6570.864  6570.880  1.000  1.930266  22.8851  3.320844  0.665880
6585.080  6585.090  1.000  1.916063  22.2408  3.273523  0.660002
6599.471  6599.470  1.000  1.901364  21.6114  3.227984  0.656754
6614.004  6614.020  1.000  1.887094  20.9974  3.181343  0.656291
6628.748  6628.740  1.000  1.872445  20.3727  3.132248  0.649943
6643.649  6643.640  1.000  1.857336  19.8321  3.095553  0.650894
6658.709  6658.700  1.000  1.843016  19.2694  3.051099  0.648841
6673.939  6673.940  1.000  1.828545  18.7229  3.007788  0.645734
6689.362  6689.350  1.000  1.813816  18.1856  2.964812  0.644000
6704.929  6704.930  1.000  1.799978  17.65  2.917589  0.637570
6720.678  6720.680  1.000  1.786217  17.1348  2.871667  0.633679
6731.285  6731.280  1.000  1.776315  16.7946  2.842661  0.632731