Folder: webxdiviewer/xdidata/Cr

Note: xdidata/README.md
# bmm-standards
A pretty webpage for BMM's collection of common XAFS materials

[BMM's common materials collection](./BMM-standards.html)

Plotting of the data will happen soon.

Periodic table adapted from [some guy named Daniel](https://codepen.io/gooseofmusic/pen/PjKdNQ)

[This](https://www.coderstool.com/scss-to-css) is a helpful tool for
dealing with Sassy CSS.

File: Cr-K-chromite.xdi
# XDI/1.0 BlueSky/1.5.3
# Beamline.name: 6BM
# Beamline.xray_source: NSLS-II three-pole wiggler
# Beamline.collimation: paraboloid mirror, 5 nm Rh on 30 nm Pt
# Beamline.focusing: not in use
# Beamline.harmonic_rejection: flat mirror, Si stripe, pitch = 7.0 mrad relative to beam
# Detector.i0: 10 cm N2
# Detector.i1: 25 cm N2
# Detector.i2: 25 cm N2
# Element.symbol: Cr
# Element.edge: K
# Facility.name: NSLS-II
# Facility.energy: 3.0
# Facility.current: 400.8
# Facility.mode: top-off
# Facility.gup: 305882
# Facility.saf: 305422
# Facility.cycle: 2020-1
# Mono.name: Si(111)
# Mono.d_spacing: 3.13532
# Mono.encoder_resolution: 0.0000050 deg/ct
# Mono.angle_offset: 16.0581 deg
# Mono.scan_mode: fixed exit
# Mono.scan_type: step
# Mono.direction: forward in energy
# Sample.name: FeCrO4
# Sample.prep: powder on tape 2x
# Sample.x_position: -74.438 mm
# Sample.y_position: 112.405 mm
# Scan.experimenters: Sarah Nicholas, Bruce Ravel
# Scan.edge_energy: 5989.0
# Scan.start_time: 2020-01-29T16:34:15
# Scan.end_time: 2020-01-30T00:23:43
# Scan.transient_id: 20496
# Scan.uid: c57f7b22-7156-491c-b46a-93e3ae364d4c
# Scan.plot_hint: ln(I0/It)  --  ln($5/$6)
# Scan.sequence: merge of 16 scans
# Column.1: energy eV
# Column.2: requested_energy eV
# Column.3: measurement_time seconds
# Column.4: mutrans
# Column.5: i0
# Column.6: itrans
# Column.7: irefer
# /////
#  Ryan Tappero, ground in AW M&P
# -----
# energy   requested_energy   measurement_time   mutrans   i0   itrans   irefer
5789 5789 0.500000 4.985929 47.6751 0.325838 0.057144
5819.02 5819 0.500000 4.903826 47.584 0.353035 0.063778
5849.01 5849 0.500000 4.821684 47.2901 0.380882 0.070737
5879.01 5879 0.500000 4.740727 47.4727 0.414590 0.079231
5909.01 5909 0.500000 4.662784 46.8031 0.441873 0.086336
5939.78 5939 0.500000 4.582980 46.3538 0.474842 0.095389
5960.99 5961 0.500000 4.528220 46.4575 0.501774 0.102669
5966.99 5967 0.500000 4.513090 46.2829 0.507512 0.104172
5973 5973 0.500000 4.498500 46.1301 0.513277 0.105633
5979 5979 0.500000 4.482268 45.9082 0.519157 0.107274
5979.74 5979.75 0.500000 4.481451 45.8593 0.519040 0.107699
5980.49 5980.5 0.500000 4.479757 45.8209 0.519485 0.107489
5981.24 5981.25 0.500000 4.477751 45.7689 0.519943 0.107827
5981.99 5982 0.500000 4.475230 45.7205 0.520698 0.107897
5982.74 5982.75 0.500000 4.474589 45.659 0.520330 0.107846
5983.49 5983.5 0.500000 4.472999 45.5981 0.520469 0.108057
5984.24 5984.25 0.500000 4.470034 45.5224 0.521140 0.108157
5985 5985 0.500000 4.468713 45.4393 0.520886 0.107936
5985.74 5985.75 0.500000 4.466953 45.319 0.520417 0.107982
5986.49 5986.5 0.500000 4.465876 45.2002 0.519611 0.107480
5987.25 5987.25 0.500000 4.463680 45.0239 0.518722 0.107129
5988 5988 0.500000 4.463059 44.7876 0.516323 0.106212
5988.74 5988.75 0.500000 4.460493 44.3606 0.512703 0.103675
5989.5 5989.5 0.500000 4.460747 43.6089 0.503890 0.098539
5990.25 5990.25 0.500000 4.461705 41.5463 0.479595 0.091209
5991 5991 0.500000 4.460894 35.8674 0.414372 0.077289
5991.74 5991.75 0.500000 4.456104 34.2653 0.397774 0.072727
5992.5 5992.5 0.500000 4.455042 43.8741 0.509869 0.092504
5993.25 5993.25 0.500000 4.455502 46.3604 0.538509 0.096544
5994 5994 0.500000 4.455687 46.4636 0.539614 0.096204
5994.75 5994.75 0.500000 4.455518 46.402 0.538983 0.095925
5995.5 5995.5 0.500000 4.456166 46.3142 0.537614 0.095707
5996.25 5996.25 0.500000 4.458277 46.2334 0.535552 0.095420
5997 5997 0.500000 4.461691 46.1612 0.532882 0.094662
5997.75 5997.75 0.500000 4.468526 46.0794 0.528297 0.091721
5998.5 5998.5 0.500000 4.477900 46.0109 0.522625 0.088465
5999.25 5999.25 0.500000 4.486285 45.9561 0.517639 0.085380
6000 6000 0.500000 4.494690 45.9126 0.512812 0.082935
6000.75 6000.75 0.500000 4.505575 45.8762 0.506825 0.080980
6001.5 6001.5 0.500000 4.519952 45.8341 0.499201 0.078339
6002.25 6002.25 0.500000 4.535421 45.7952 0.491106 0.076262
6003 6003 0.500000 4.547370 45.7738 0.485011 0.074420
6003.75 6003.75 0.500000 4.553885 45.7263 0.481376 0.072967
6004.5 6004.5 0.500000 4.559574 45.72 0.478574 0.072279
6005.25 6005.25 0.500000 4.565038 45.7089 0.475842 0.070890
6006 6006 0.500000 4.575319 45.7049 0.470948 0.069389
6006.75 6006.75 0.500000 4.600547 45.6616 0.458819 0.067059
6007.5 6007.5 0.500000 4.637543 45.6532 0.442047 0.064308
6008.25 6008.25 0.500000 4.677034 45.6303 0.424700 0.060821
6009 6009 0.500000 4.696614 45.6122 0.416301 0.058982
6009.75 6009.75 0.500000 4.690782 45.5813 0.418442 0.058907
6010.5 6010.5 0.500000 4.666403 45.5663 0.428645 0.061014
6011.25 6011.25 0.500000 4.634486 45.5354 0.442219 0.064088
6012 6012 0.500000 4.607195 45.5122 0.454222 0.066703
6012.76 6012.75 0.500000 4.586286 45.4754 0.463501 0.069266
6013.5 6013.5 0.500000 4.572938 45.4583 0.469514 0.070794
6015.01 6014.99 0.500000 4.556889 45.4122 0.476632 0.072216
6018.06 6018.06 0.500000 4.559495 45.3036 0.474237 0.070478
6021.31 6021.3 0.500000 4.573316 45.2113 0.466784 0.069235
6024.71 6024.71 0.500000 4.554778 45.127 0.474622 0.071050
6028.31 6028.3 0.500000 4.517345 45.0299 0.491686 0.072233
6032.06 6032.05 0.500000 4.490135 44.9274 0.504086 0.073805
6035.99 6035.98 0.500000 4.472552 44.8338 0.511957 0.074708
6040.09 6040.08 0.500000 4.463031 44.7087 0.515415 0.074859
6044.36 6044.35 0.500000 4.459468 44.6168 0.516188 0.075915
6048.8 6048.79 0.500000 4.459407 44.4948 0.514807 0.076916
6053.42 6053.41 0.500000 4.454776 44.3357 0.515354 0.079001
6058.2 6058.19 0.500000 4.450300 44.1294 0.515250 0.080408
6063.16 6063.15 0.500000 4.447437 43.9047 0.514096 0.080279
6068.29 6068.28 0.500000 4.433825 43.7566 0.519385 0.079248
6073.59 6073.58 0.500000 4.417375 43.5798 0.525870 0.080022
6079.06 6079.05 0.500000 4.403416 43.401 0.531075 0.083274
6084.7 6084.69 0.500000 4.385129 43.1833 0.538167 0.087222
6090.52 6090.51 0.500000 4.369161 42.9719 0.544142 0.085664
6096.5 6096.49 0.500000 4.352619 42.7353 0.550174 0.082833
6102.66 6102.65 0.500000 4.336546 42.4833 0.555793 0.083995
6108.99 6108.98 0.500000 4.321849 42.2215 0.560542 0.089198
6115.49 6115.48 0.500000 4.305268 41.919 0.565835 0.092623
6122.16 6122.15 0.500000 4.286337 41.6074 0.572363 0.093674
6129 6128.99 0.500000 4.268349 41.2597 0.577882 0.095598
6136.01 6136 0.500000 4.256856 40.8896 0.579313 0.096978
6143.2 6143.19 0.500000 4.244218 40.4768 0.580767 0.097083
6150.56 6150.55 0.500000 4.230458 39.9808 0.581596 0.096401
6158.08 6158.07 0.500000 4.213803 39.1461 0.579023 0.095663
6165.77 6165.77 0.500000 4.197106 36.4331 0.547959 0.088985
6173.66 6173.65 0.500000 4.175027 38.9245 0.598506 0.099973
6181.7 6181.69 0.500000 4.152471 38.2501 0.601558 0.103333
6189.91 6189.9 0.500000 4.129614 37.5939 0.604902 0.104919
6198.29 6198.29 0.500000 4.110967 36.9074 0.605031 0.105994
6206.86 6206.85 0.500000 4.093218 36.1704 0.603578 0.107271
6215.58 6215.57 0.500000 4.074200 35.4021 0.602098 0.108604
6224.47 6224.47 0.500000 4.055168 34.5918 0.599625 0.107724
6233.55 6233.55 0.500000 4.035077 33.7282 0.596524 0.106190
6242.79 6242.79 0.500000 4.014164 32.8459 0.593198 0.104515
6252.2 6252.2 0.500000 3.993590 31.9189 0.588445 0.105403
6261.79 6261.79 0.500000 3.972519 30.9726 0.583159 0.107444
6271.55 6271.55 0.500000 3.950850 30.0019 0.577261 0.107449
6281.47 6281.47 0.500000 3.930100 29.0256 0.570189 0.107233
6291.57 6291.57 0.500000 3.908339 28.0285 0.562723 0.106528
6301.85 6301.85 0.500000 3.886007 27.0465 0.555271 0.106307
6312.29 6312.29 0.500000 3.863862 26.0711 0.547235 0.105519
6322.91 6322.9 0.500000 3.840110 25.0929 0.539369 0.103694
6333.69 6333.69 0.500000 3.817761 24.1496 0.530821 0.102515
6344.66 6344.65 0.500000 3.794981 23.213 0.521995 0.101778
6355.78 6355.78 0.500000 3.771714 22.3122 0.513548 0.101209
6367.09 6367.08 0.500000 3.749631 21.4339 0.504356 0.101146
6378.56 6378.55 0.500000 3.727422 20.5856 0.495264 0.100276
6390.19 6390.19 0.500000 3.705021 19.7627 0.486238 0.099355
6402.02 6402.01 0.500000 3.681732 18.973 0.477813 0.098291
6413.99 6413.99 0.500000 3.657716 18.2277 0.470188 0.097270
6426.16 6426.15 0.500000 3.634012 17.5106 0.462531 0.096681
6438.5 6438.48 0.500000 3.609667 16.8223 0.455311 0.095472
6450.99 6450.98 0.500000 3.585430 16.1872 0.448859 0.095264
6463.64 6463.65 0.500000 3.561169 15.4584 0.439156 0.093987
6476.5 6476.49 0.500000 3.537797 15.0014 0.436265 0.094435
6489.49 6489.51 0.500000 3.513249 14.4693 0.431221 0.094264
6502.67 6502.7 0.500000 3.488982 13.9683 0.426512 0.093986
6516.06 6516.05 0.500000 3.465169 13.4993 0.422145 0.094062
6529.57 6529.58 0.500000 3.440336 13.0625 0.418734 0.093936
6543.25 6543.28 0.500000 3.415524 12.6393 0.415349 0.094239
6557.2 6557.16 0.500000 3.390482 12.2354 0.412317 0.094190
6571.17 6571.2 0.500000 3.366008 11.8644 0.409667 0.094424
6585.39 6585.41 0.500000 3.340753 11.5152 0.407782 0.095192
6599.78 6599.8 0.500000 3.315079 11.1835 0.406339 0.095700
6614.34 6614.36 0.500000 3.289410 10.8625 0.404937 0.096372
6629.07 6629.09 0.500000 3.264164 10.5533 0.403476 0.096925
6643.97 6643.99 0.500000 3.238996 10.2648 0.402452 0.097496
6659.04 6659.06 0.500000 3.214103 9.983805 0.401295 0.097996
6674.27 6674.3 0.500000 3.186949 9.705830 0.400851 0.098788
6689.7 6689.72 0.500000 3.161755 9.434048 0.399568 0.099266
6705.3 6705.31 0.500000 3.136578 9.169994 0.398297 0.100177
6721.04 6721.06 0.500000 3.110311 8.913095 0.397442 0.100606
6736.97 6736.99 0.500000 3.085592 8.658794 0.395768 0.101612
6753.08 6753.09 0.500000 3.059095 8.411472 0.394784 0.102045
6769.34 6769.37 0.500000 3.033193 8.162487 0.393142 0.102726
6785.78 6785.81 0.500000 3.007377 7.925569 0.391719 0.103247
6802.39 6802.42 0.500000 2.981201 7.707797 0.391060 0.104095
6819.19 6819.21 0.500000 2.954709 7.458658 0.388577 0.104410
6836.18 6836.17 0.500000 2.928895 7.325077 0.391617 0.106115
6841.84 6841.86 0.500000 2.920512 7.116824 0.383666 0.104187

File: Cr-K-ChromiumFoil.xdi
# XDI/1.0 BlueSky/1.10.0 BMM/2023-1.0-py310-tiled
# Beamline.name: BMM (06BM) -- Beamline for Materials Measurement (NIST)
# Beamline.xray_source: NSLS-II three-pole wiggler
# Beamline.collimation: paraboloid mirror, 5 nm Rh on 30 nm Pt
# Beamline.focusing: not in use
# Beamline.harmonic_rejection: flat mirror, Si stripe, pitch = 7.0 mrad relative to beam
# Beamline.software: Bluesky 1.10.0, Ophyd 1.7.0, DataBroker 2.0.0b13, Python 3.10.8, 2023-1.0-py310-tiled
# Detector.I0: 10 cm N2
# Detector.I1: 25 cm N2
# Detector.I2: 25 cm N2
# Element.symbol: Cr
# Element.edge: K
# Element.reference: Cr
# Element.reference_material: Cr foil
# Facility.name: NSLS-II
# Facility.energy: 3.0
# Facility.current: 400.5
# Facility.mode: top-off
# Facility.GUP: 301027
# Facility.SAF: 310583
# Facility.cycle: 2023-2
# Mono.name: Si(111)
# Mono.d_spacing: 3.13519
# Mono.encoder_resolution: 0.0000050 deg/ct
# Mono.angle_offset: 16.0754 deg
# Mono.scan_mode: pseudo channel cut
# Mono.scan_type: step
# Mono.direction: forward in energy
# Sample.name: Cr foil
# Sample.prep: reference foil
# Sample.x: 109.138 mm
# Sample.y: 153.150 mm
# Sample.SDD_position: 205.000 mm
# Scan.experimenters: Bruce Ravel
# Scan.edge_energy: 5989.2
# Scan.start_time: 2023-05-28T11:54:06
# Scan.end_time: 2023-05-28T12:02:14
# Scan.transient_id: 78658
# Scan.uid: c9882daa-5210-4e33-a77c-930512531ec7
# Scan.plot_hint: ln(It/Ir)  --  ln($6/$7)
# Column.1: energy eV
# Column.2: requested_energy eV
# Column.3: measurement_time seconds
# Column.4: xmu
# Column.5: I0 nA
# Column.6: It nA
# Column.7: Ir nA
# ///////////
# standard reference foil
# -----------
# energy  requested_energy  measurement_time  xmu  I0  It  Ir
  5789.197  5789.200  0.500  3.008692  113.454  61.9444  3.057338
  5819.230  5819.200  0.500  2.962833  113.943  63.4409  3.278136
  5849.208  5849.200  0.500  2.918085  114.132  64.7819  3.500627
  5879.207  5879.200  0.500  2.874372  114.999  66.5269  3.755546
  5909.188  5909.200  0.500  2.831631  113.342  66.789  3.934985
  5939.193  5939.200  0.500  2.789664  113.578  68.1709  4.188545
  5961.195  5961.200  0.500  2.759551  114.148  69.4189  4.395618
  5967.198  5967.200  0.500  2.751834  113.851  69.4453  4.431357
  5973.194  5973.200  0.500  2.744018  113.51  69.5128  4.470465
  5979.192  5979.200  0.500  2.736905  113.124  69.495  4.501229
  5980.087  5980.100  0.500  2.735935  113.031  69.4729  4.504165
  5980.988  5981.000  0.500  2.734765  112.935  69.483  4.510088
  5981.885  5981.900  0.500  2.734080  112.831  69.4555  4.511394
  5982.788  5982.800  0.500  2.733242  112.701  69.4229  4.513056
  5983.695  5983.700  0.500  2.732690  112.545  69.362  4.511591
  5984.592  5984.600  0.500  2.732089  112.328  69.2601  4.507671
  5985.494  5985.500  0.500  2.731854  112.059  69.1361  4.500656
  5986.396  5986.400  0.500  2.732075  111.688  68.9519  4.487668
  5987.296  5987.300  0.500  2.732919  111.081  68.5901  4.460361
  5988.192  5988.200  0.500  2.736429  109.939  67.8956  4.399723
  5989.096  5989.100  0.500  2.749786  107.054  66.1831  4.231848
  5989.996  5990.000  0.500  2.788408  95.1177  58.8266  3.618959
  5990.896  5990.900  0.500  2.818083  85.3636  52.8281  3.154912
  5991.804  5991.800  0.500  2.838887  110.457  68.3809  3.999649
  5992.695  5992.700  0.500  2.855512  113.918  70.5748  4.059909
  5993.601  5993.600  0.500  2.868785  113.97  70.6413  4.010159
  5994.500  5994.500  0.500  2.876129  113.854  70.5981  3.978382
  5995.397  5995.400  0.500  2.877214  113.708  70.5406  3.970826
  5996.305  5996.300  0.500  2.874585  113.572  70.4944  3.978673
  5997.197  5997.200  0.500  2.878656  113.452  70.4663  3.960932
  5998.102  5998.100  0.500  2.897842  113.338  70.4068  3.882375
  5999.001  5999.000  0.500  2.925510  113.234  70.3909  3.775579
  5999.898  5999.900  0.500  2.952491  113.142  70.3762  3.674307
  6000.803  6000.800  0.500  2.975810  113.049  70.3624  3.588913
  6001.699  6001.700  0.500  2.993493  112.969  70.2934  3.522550
  6002.601  6002.600  0.500  3.007454  112.895  70.3323  3.475636
  6003.499  6003.500  0.500  3.019798  112.811  70.3154  3.432171
  6004.403  6004.400  0.500  3.030541  112.751  70.2989  3.394699
  6005.299  6005.300  0.500  3.040698  112.667  70.2704  3.359029
  6006.199  6006.200  0.500  3.052112  112.613  70.2838  3.321541
  6007.103  6007.100  0.500  3.062958  112.961  70.5426  3.297809
  6008.001  6008.000  0.500  3.073984  112.91  70.5527  3.262115
  6008.902  6008.900  0.500  3.086836  112.869  70.5562  3.220617
  6009.804  6009.800  0.500  3.093844  112.809  70.5547  3.198063
  6010.701  6010.700  0.500  3.086956  112.763  70.566  3.220677
  6011.605  6011.600  0.500  3.069819  112.688  70.5798  3.276991
  6012.507  6012.500  0.500  3.049941  112.647  70.5845  3.343003
  6013.401  6013.400  0.500  3.034245  112.589  70.5897  3.396138
  6014.199  6014.200  0.500  3.025411  112.543  70.5917  3.426371
  6017.204  6017.210  0.500  3.032699  112.348  70.5859  3.401210
  6020.400  6020.400  0.500  3.047129  112.147  70.5909  3.352718
  6023.765  6023.760  0.500  3.030800  111.973  70.5949  3.408108
  6027.281  6027.280  0.500  3.042473  111.785  70.6089  3.369229
  6030.982  6030.980  0.500  3.051224  111.554  70.6333  3.341026
  6034.855  6034.850  0.500  3.049135  111.287  70.622  3.347476
  6038.903  6038.900  0.500  3.053999  111.031  70.6267  3.331453
  6043.110  6043.110  0.500  3.044604  110.752  70.6329  3.363199
  6047.495  6047.490  0.500  3.030569  110.471  70.6077  3.409519
  6052.059  6052.050  0.500  3.003997  110.141  70.5977  3.500829
  6056.789  6056.780  0.500  2.977933  109.634  70.4453  3.585519
  6061.687  6061.680  0.500  2.964672  109.077  70.2334  3.622451
  6066.760  6066.750  0.500  2.976641  108.633  70.1283  3.573999
  6071.996  6071.990  0.500  2.996239  108.215  70.091  3.502773
  6077.412  6077.410  0.500  2.968580  107.747  69.9683  3.594704
  6083.001  6082.990  0.500  2.931800  107.234  69.8728  3.724293
  6088.761  6088.750  0.500  2.930762  106.644  69.7185  3.719927
  6094.694  6094.680  0.500  2.973698  106.041  69.5341  3.554160
  6100.785  6100.780  0.500  2.994137  105.402  69.3813  3.474602
  6107.056  6107.050  0.500  2.949974  104.663  69.0683  3.615106
  6113.503  6113.490  0.500  2.901800  103.884  68.8328  3.780590
  6120.109  6120.100  0.500  2.892086  103.013  68.4639  3.797034
  6126.905  6126.890  0.500  2.886088  102.099  68.1386  3.801729
  6133.864  6133.850  0.500  2.866285  101.096  67.7011  3.852865
  6140.981  6140.970  0.500  2.860519  99.9805  67.2328  3.848344
  6148.295  6148.270  0.500  2.862156  98.7007  66.595  3.805600
  6155.775  6155.750  0.500  2.862337  96.943  65.6432  3.750528
  6163.414  6163.390  0.500  2.874787  96.2043  65.4267  3.691906
  6171.228  6171.200  0.500  2.861525  96.5409  65.934  3.770206
  6179.182  6179.190  0.500  2.825498  94.3171  64.6831  3.834358
  6187.341  6187.350  0.500  2.804040  92.6007  63.7601  3.861622
  6195.692  6195.670  0.500  2.790521  90.8869  62.8617  3.859031
  6204.174  6204.170  0.500  2.776420  89.1471  61.8859  3.853080
  6212.854  6212.850  0.500  2.756742  87.3385  60.9047  3.867343
  6221.684  6221.690  0.500  2.748374  85.4617  59.8537  3.832548
  6230.684  6230.700  0.500  2.753355  83.5737  58.8233  3.747852
  6239.903  6239.890  0.500  2.759431  81.652  57.6919  3.653500
  6249.259  6249.250  0.500  2.748834  79.6623  56.5651  3.620304
  6258.780  6258.770  0.500  2.712052  77.689  55.4427  3.681417
  6268.464  6268.470  0.500  2.694245  75.72  54.2584  3.667505
  6278.364  6278.350  0.500  2.680713  73.7607  53.1033  3.638334
  6288.383  6288.390  0.500  2.669568  71.8219  51.9871  3.601780
  6298.595  6298.600  0.500  2.654582  70.106  50.9822  3.585491
  6308.991  6308.990  0.500  2.639970  68.2227  49.8517  3.557589
  6319.537  6319.550  0.500  2.633542  66.3562  48.7319  3.500103
  6330.261  6330.280  0.500  2.627830  64.5144  47.6081  3.438971
  6341.169  6341.180  0.500  2.616066  62.7295  46.5136  3.399669
  6352.239  6352.250  0.500  2.598017  60.9757  45.4534  3.382685
  6363.478  6363.490  0.500  2.577964  59.2704  44.4289  3.373418
  6374.895  6374.910  0.500  2.560928  57.6182  43.3925  3.351334
  6386.476  6386.490  0.500  2.548840  56.0092  42.4198  3.316057
  6398.266  6398.250  0.500  2.535289  54.443  41.4505  3.284490
  6410.168  6410.180  0.500  2.522987  52.9122  40.4976  3.248703
  6422.280  6422.280  0.500  2.508230  51.4134  39.5628  3.220896
  6434.530  6434.550  0.500  2.497337  49.9216  38.6169  3.178316
  6446.976  6446.990  0.500  2.484644  48.4978  37.7293  3.144935
  6459.585  6459.610  0.500  2.466942  46.991  36.74  3.117162
  6472.378  6472.390  0.500  2.451925  45.7376  35.9716  3.098151
  6485.332  6485.350  0.500  2.436163  44.4335  35.1236  3.073167
  6498.460  6498.480  0.500  2.423082  43.1633  34.3173  3.042161
  6511.812  6511.780  0.500  2.408396  41.9351  33.52  3.015440
  6525.231  6525.250  0.500  2.392337  40.7468  32.7378  2.992754
  6538.888  6538.900  0.500  2.377748  39.5808  31.9859  2.966989
  6552.695  6552.710  0.500  2.364708  38.4526  31.2652  2.938204
  6566.684  6566.700  0.500  2.350676  37.3595  30.5374  2.910358
  6580.832  6580.860  0.500  2.335076  36.3186  29.8616  2.890694
  6595.199  6595.190  0.500  2.319480  35.2884  29.1825  2.869358
  6609.671  6609.690  0.500  2.304419  34.3067  28.524  2.847178
  6624.350  6624.360  0.500  2.289765  33.3322  27.8703  2.822993
  6639.181  6639.200  0.500  2.274621  32.3948  27.2435  2.801610
  6654.205  6654.220  0.500  2.259120  31.4627  26.6195  2.780203
  6669.385  6669.400  0.500  2.243549  30.5485  25.9876  2.756795
  6684.745  6684.760  0.500  2.228978  29.657  25.3802  2.731885
  6700.277  6700.290  0.500  2.214525  28.7717  24.7557  2.703451
  6715.973  6715.990  0.500  2.199980  27.9069  24.1596  2.677017
  6731.840  6731.860  0.500  2.184910  27.0378  23.5428  2.648273
  6747.886  6747.910  0.500  2.169449  26.1877  22.9426  2.620975
  6764.105  6764.120  0.500  2.154442  25.3603  22.3408  2.590810
  6780.493  6780.510  0.500  2.138587  24.5393  21.7424  2.561720
  6797.055  6797.070  0.500  2.123406  23.6727  21.0939  2.523325
  6813.782  6813.800  0.500  2.108143  22.7461  20.3833  2.475826
  6830.691  6830.700  0.500  2.093017  21.6549  19.5248  2.407690
  6842.040  6842.060  0.500  2.083063  21.5481  19.5036  2.429138