Folder: webxdiviewer/xdidata/Cr (part 3)

File: Cr-K-CrO3.xdi
# XDI/1.0 BlueSky/1.5.3
# Beamline.name: 6BM
# Beamline.xray_source: NSLS-II three-pole wiggler
# Beamline.collimation: paraboloid mirror, 5 nm Rh on 30 nm Pt
# Beamline.focusing: not in use
# Beamline.harmonic_rejection: flat mirror, Si stripe, pitch = 7.0 mrad relative to beam
# Detector.i0: 10 cm N2
# Detector.i1: 25 cm N2
# Detector.i2: 25 cm N2
# Element.symbol: Cr
# Element.edge: K
# Facility.name: NSLS-II
# Facility.energy: 3.0
# Facility.current: 399.5
# Facility.mode: top-off
# Facility.gup: 305882
# Facility.saf: 305422
# Facility.cycle: 2020-1
# Mono.name: Si(111)
# Mono.d_spacing: 3.13532
# Mono.encoder_resolution: 0.0000050 deg/ct
# Mono.angle_offset: 16.0581 deg
# Mono.scan_mode: fixed exit
# Mono.scan_type: step
# Mono.direction: forward in energy
# Sample.name: CrO3
# Sample.prep: powder on tape 2x
# Sample.x_position: -74.438 mm
# Sample.y_position: 112.405 mm
# Scan.experimenters: Sarah Nicholas, Bruce Ravel
# Scan.edge_energy: 5989.0
# Scan.start_time: 2020-01-30T04:05:39
# Scan.end_time: 2020-01-30T06:21:35
# Scan.transient_id: 20574
# Scan.uid: f596814b-f7ea-4277-940d-597cfe298a50
# Scan.plot_hint: ln(I0/It)  --  ln($5/$6)
# Scan.sequence: merge of 16 scans
# Column.1: energy eV
# Column.2: requested_energy eV
# Column.3: measurement_time seconds
# Column.4: mutrans
# Column.5: i0
# Column.6: itrans
# Column.7: irefer
# /////
#  Sigma, ground in AW M&P
# -----
# energy   requested_energy   measurement_time   mutrans   i0   itrans   irefer
5789 5789 0.500000 3.184599 47.649 1.972487 0.351959
5819.01 5819 0.500000 3.127633 47.5443 2.083448 0.381171
5849.01 5849 0.500000 3.070802 47.2566 2.191949 0.411443
5879.01 5879 0.500000 3.015377 47.474 2.327515 0.448494
5909 5909 0.500000 2.960913 46.8114 2.423491 0.478807
5938.99 5939 0.500000 2.907792 46.3618 2.531147 0.512407
5961 5961 0.500000 2.869911 46.4957 2.636493 0.542774
5966.99 5967 0.500000 2.859915 46.3309 2.653528 0.548905
5973 5973 0.500000 2.850179 46.1611 2.669678 0.554269
5978.99 5979 0.500000 2.841136 45.9358 2.680768 0.558908
5979.74 5979.75 0.500000 2.840138 45.8921 2.680908 0.559358
5980.49 5980.5 0.500000 2.839309 45.8529 2.680839 0.559245
5981.24 5981.25 0.500000 2.838259 45.8216 2.681828 0.559543
5981.99 5982 0.500000 2.837528 45.7718 2.680862 0.559668
5982.74 5982.75 0.500000 2.836695 45.7241 2.680305 0.559467
5983.49 5983.5 0.500000 2.835962 45.6694 2.679066 0.559388
5984.25 5984.25 0.500000 2.835272 45.6115 2.677513 0.559095
5984.99 5985 0.500000 2.835042 45.5249 2.673046 0.558274
5985.74 5985.75 0.500000 2.834880 45.4383 2.668390 0.557027
5986.5 5986.5 0.500000 2.835156 45.3067 2.659932 0.554560
5987.25 5987.25 0.500000 2.835666 45.1333 2.648393 0.550771
5987.99 5988 0.500000 2.837234 44.882 2.629545 0.544698
5988.75 5988.75 0.500000 2.840368 44.4601 2.596650 0.530379
5989.5 5989.5 0.500000 2.846714 43.7128 2.536863 0.500797
5990.25 5990.25 0.500000 2.861300 41.7449 2.387713 0.459261
5991 5991 0.500000 2.902658 36.1614 1.984865 0.374312
5991.75 5991.75 0.500000 2.996313 34.1977 1.708174 0.316299
5992.5 5992.5 0.500000 3.081037 43.7231 2.007036 0.366901
5993.25 5993.25 0.500000 3.246346 46.4166 1.807343 0.327162
5994 5994 0.500000 3.261870 46.5529 1.785024 0.320535
5994.75 5994.75 0.500000 3.115291 46.4888 2.063561 0.370187
5995.49 5995.5 0.500000 3.004334 46.4052 2.299118 0.413093
5996.25 5996.25 0.500000 2.947038 46.3152 2.431170 0.437017
5997 5997 0.500000 2.912327 46.2455 2.513655 0.448704
5997.75 5997.75 0.500000 2.896124 46.167 2.549929 0.446897
5998.5 5998.5 0.500000 2.892705 46.1158 2.556015 0.437760
5999.25 5999.25 0.500000 2.899935 46.0661 2.534698 0.424115
6000 6000 0.500000 2.915085 46.0229 2.494447 0.408454
6000.75 6000.75 0.500000 2.934904 45.9859 2.443778 0.393118
6001.5 6001.5 0.500000 2.955844 45.9509 2.390807 0.379490
6002.25 6002.25 0.500000 2.978431 45.9241 2.336178 0.366267
6003 6003 0.500000 3.001465 45.9034 2.282312 0.354029
6003.75 6003.75 0.500000 3.026331 45.875 2.224621 0.341700
6004.5 6004.5 0.500000 3.051071 45.8398 2.168335 0.330180
6005.25 6005.25 0.500000 3.075558 45.8248 2.115644 0.318959
6006 6006 0.500000 3.100836 45.7999 2.061712 0.307807
6006.76 6006.75 0.500000 3.132915 45.7711 1.994752 0.294955
6007.5 6007.5 0.500000 3.174730 45.7469 1.912199 0.280219
6008.24 6008.25 0.500000 3.221099 45.7239 1.825743 0.264117
6009 6009 0.500000 3.254754 45.6966 1.763312 0.252644
6009.75 6009.75 0.500000 3.272712 45.6641 1.730737 0.247753
6010.5 6010.5 0.500000 3.282512 45.6456 1.713340 0.247421
6011.25 6011.25 0.500000 3.297587 45.6169 1.686594 0.247285
6012 6012 0.500000 3.317627 45.5917 1.652094 0.246375
6012.75 6012.75 0.500000 3.339126 45.5645 1.616156 0.244326
6013.5 6013.5 0.500000 3.357382 45.5489 1.586302 0.242034
6015.01 6014.99 0.500000 3.384753 45.5098 1.542114 0.236106
6018.06 6018.06 0.500000 3.396539 45.4336 1.521508 0.227824
6021.31 6021.3 0.500000 3.372403 45.3515 1.555902 0.233094
6024.72 6024.71 0.500000 3.375457 45.26 1.547981 0.233380
6028.3 6028.3 0.500000 3.410521 45.1711 1.491767 0.221152
6032.06 6032.05 0.500000 3.420547 45.0737 1.473668 0.217392
6035.99 6035.98 0.500000 3.404359 44.9651 1.494118 0.219967
6040.09 6040.08 0.500000 3.383842 44.8624 1.521560 0.222660
6044.36 6044.35 0.500000 3.359511 44.7574 1.555447 0.230518
6048.8 6048.79 0.500000 3.331365 44.6299 1.595284 0.239766
6053.42 6053.41 0.500000 3.296934 44.4688 1.645226 0.254472
6058.2 6058.19 0.500000 3.269317 44.2634 1.683450 0.265127
6063.15 6063.15 0.500000 3.252372 44.0438 1.703707 0.268982
6068.28 6068.28 0.500000 3.240052 43.8777 1.718329 0.265257
6073.59 6073.58 0.500000 3.231570 43.7053 1.726157 0.265223
6079.06 6079.05 0.500000 3.225979 43.5223 1.728570 0.273890
6084.7 6084.69 0.500000 3.222749 43.319 1.726065 0.281172
6090.52 6090.51 0.500000 3.215677 43.0995 1.729505 0.274710
6096.5 6096.49 0.500000 3.208022 42.8568 1.732983 0.263468
6102.65 6102.65 0.500000 3.204091 42.6044 1.729555 0.262786
6108.99 6108.98 0.500000 3.200727 42.3402 1.724635 0.275972
6115.49 6115.48 0.500000 3.194056 42.0365 1.723720 0.284589
6122.16 6122.15 0.500000 3.183464 41.7167 1.728811 0.284774
6129 6128.99 0.500000 3.169136 41.3722 1.739295 0.290018
6136 6136 0.500000 3.153513 40.9996 1.750741 0.295010
6143.2 6143.19 0.500000 3.137197 40.5567 1.760343 0.296513
6150.56 6150.55 0.500000 3.121302 40.058 1.766555 0.295325
6158.07 6158.07 0.500000 3.105247 39.1919 1.756311 0.292307
6165.78 6165.77 0.500000 3.089181 36.5276 1.663440 0.272342
6173.66 6173.65 0.500000 3.073043 38.8909 1.799875 0.302214
6181.7 6181.69 0.500000 3.057515 38.2054 1.795819 0.309769
6189.9 6189.9 0.500000 3.042811 37.5062 1.789064 0.312497
6198.29 6198.29 0.500000 3.028090 36.7916 1.781004 0.314217
6206.86 6206.85 0.500000 3.013443 36.0139 1.769090 0.315708
6215.58 6215.57 0.500000 2.999108 35.2176 1.754948 0.317701
6224.47 6224.47 0.500000 2.984864 34.3656 1.737057 0.313519
6233.55 6233.55 0.500000 2.970055 33.4713 1.717084 0.306856
6242.8 6242.79 0.500000 2.954511 32.5557 1.696282 0.300717
6252.2 6252.2 0.500000 2.938570 31.611 1.673521 0.301976
6261.8 6261.79 0.500000 2.922715 30.6327 1.647662 0.306438
6271.56 6271.55 0.500000 2.906628 29.6382 1.620025 0.303359
6281.47 6281.47 0.500000 2.890196 28.6399 1.591382 0.300734
6291.58 6291.57 0.500000 2.873502 27.6399 1.561677 0.296570
6301.85 6301.85 0.500000 2.856966 26.6453 1.530583 0.294575
6312.29 6312.29 0.500000 2.840122 25.6594 1.498979 0.290612
6322.91 6322.9 0.500000 2.823029 24.691 1.467283 0.284137
6333.69 6333.69 0.500000 2.805421 23.751 1.436481 0.278929
6344.66 6344.65 0.500000 2.787828 22.8213 1.404759 0.275510
6355.78 6355.78 0.500000 2.770064 21.9373 1.374548 0.273066
6367.09 6367.08 0.500000 2.752688 21.0676 1.343187 0.270968
6378.56 6378.55 0.500000 2.735383 20.2442 1.313220 0.267278
6390.19 6390.19 0.500000 2.717353 19.4435 1.284230 0.263569
6402.02 6402.01 0.500000 2.700026 18.6763 1.255115 0.259629
6414 6413.99 0.500000 2.681705 17.9572 1.229108 0.256112
6426.16 6426.15 0.500000 2.663684 17.274 1.203846 0.253201
6438.49 6438.48 0.500000 2.646004 16.6085 1.178112 0.248846
6451 6450.98 0.500000 2.627812 16.0082 1.156379 0.246568
6463.66 6463.65 0.500000 2.610109 15.3208 1.126485 0.243429
6476.5 6476.49 0.500000 2.591831 14.8838 1.114542 0.242736
6489.52 6489.51 0.500000 2.573542 14.3815 1.096803 0.241344
6502.73 6502.7 0.500000 2.554697 13.9123 1.081221 0.239596
6516.06 6516.05 0.500000 2.536108 13.4629 1.065902 0.238600
6529.56 6529.58 0.500000 2.517289 13.0502 1.052820 0.237978
6543.32 6543.28 0.500000 2.498161 12.6434 1.039785 0.237167
6557.14 6557.16 0.500000 2.478784 12.2582 1.027742 0.236050
6571.18 6571.2 0.500000 2.459817 11.8958 1.016468 0.236007
6585.39 6585.41 0.500000 2.441169 11.5557 1.005979 0.235604
6599.8 6599.8 0.500000 2.421456 11.2268 0.996844 0.235731
6614.37 6614.36 0.500000 2.401993 10.9086 0.987648 0.235934
6629.07 6629.09 0.500000 2.383443 10.5974 0.977427 0.235481
6643.97 6643.99 0.500000 2.364624 10.3045 0.968461 0.235601
6659.04 6659.06 0.500000 2.345910 10.0273 0.960296 0.236112
6674.28 6674.3 0.500000 2.326208 9.741394 0.951382 0.236104
6689.72 6689.72 0.500000 2.307446 9.469914 0.942422 0.235995
6705.29 6705.31 0.500000 2.288039 9.199417 0.933415 0.235499
6721.03 6721.06 0.500000 2.268396 8.937151 0.924795 0.235988
6736.96 6736.99 0.500000 2.248759 8.678730 0.915839 0.235883
6753.11 6753.09 0.500000 2.228985 8.425842 0.906940 0.235520
6769.36 6769.37 0.500000 2.209081 8.177533 0.897893 0.235927
6785.8 6785.81 0.500000 2.189479 7.939061 0.888971 0.235606
6802.4 6802.42 0.500000 2.169726 7.719268 0.881597 0.235860
6819.2 6819.21 0.500000 2.150001 7.462821 0.869282 0.234592
6836.19 6836.17 0.500000 2.130245 7.329421 0.870809 0.237421
6841.84 6841.86 0.500000 2.123858 7.116393 0.850895 0.232633

File: Cr-K-K2CrO4.xdi
# XDI/1.0 BlueSky/1.5.3
# Beamline.name: 6BM
# Beamline.xray_source: NSLS-II three-pole wiggler
# Beamline.collimation: paraboloid mirror, 5 nm Rh on 30 nm Pt
# Beamline.focusing: not in use
# Beamline.harmonic_rejection: flat mirror, Si stripe, pitch = 7.0 mrad relative to beam
# Detector.i0: 10 cm N2
# Detector.i1: 25 cm N2
# Detector.i2: 25 cm N2
# Element.symbol: Cr
# Element.edge: K
# Facility.name: NSLS-II
# Facility.energy: 3.0
# Facility.current: 400.1
# Facility.mode: top-off
# Facility.gup: 305832
# Facility.saf: 305669
# Facility.cycle: 2020-1
# Mono.name: Si(111)
# Mono.d_spacing: 3.13532
# Mono.encoder_resolution: 0.0000050 deg/ct
# Mono.angle_offset: 16.0581 deg
# Mono.scan_mode: fixed exit
# Mono.scan_type: step
# Mono.direction: forward in energy
# Sample.name: K2CrO4
# Sample.prep: Powder in polyethylene glycol pellet
# Sample.x_position: -3.945 mm
# Sample.y_position: 103.894 mm
# Scan.experimenters: Neil Hyatt, Martin Stennett, Dan Austin, Seb Lawson
# Scan.edge_energy: 5989.2
# Scan.start_time: 2020-03-02T23:18:07
# Scan.end_time: 2020-03-03T03:41:44
# Scan.transient_id: 22521
# Scan.uid: f8c83910-4adb-4207-a465-9ff0ff0e9cd2
# Scan.plot_hint: (DTC1 + DTC2 + DTC3 + DTC4) / I0  --  ($8+$9+$10+$11) / $5
# Scan.sequence: merge of 2 scans
# Column.1: energy eV
# Column.2: requested_energy eV
# Column.3: measurement_time seconds
# Column.4: mutrans
# Column.5: i0
# Column.6: itrans
# Column.7: irefer
# /////
#  -200  -30  -10 30 14k
# -----
# energy   requested_energy   measurement_time   mutrans   i0   itrans   irefer
5789.2 5789.2 1.000000 0.013947 83.2833 6.873608 1.093140
5819.21 5819.2 1.000000 0.018128 83.2307 7.193532 1.173646
5849.21 5849.2 1.000000 0.037013 83.1339 7.515439 1.256537
5879.21 5879.2 1.000000 0.024969 83.4468 7.881159 1.350839
5909.18 5909.2 1.000000 0.032813 82.3525 8.121716 1.426096
5939.2 5939.2 1.000000 0.024740 81.5014 8.380529 1.506710
5961.19 5961.2 1.000000 0.024338 82.176 8.705099 1.590645
5967.19 5967.2 1.000000 0.040811 81.8541 8.741371 1.606214
5973.2 5973.2 1.000000 0.025808 81.5295 8.773916 1.618184
5979.21 5979.2 1.000000 0.062941 81.18 8.801808 1.629064
5979.94 5979.95 1.000000 0.045733 81.0914 8.798533 1.629232
5980.69 5980.7 1.000000 0.038300 81.0166 8.799035 1.630615
5981.44 5981.45 1.000000 0.021693 80.9677 8.799753 1.630995
5982.19 5982.2 1.000000 0.027487 81.0065 8.812173 1.634343
5982.94 5982.95 1.000000 0.031639 80.9113 8.808217 1.632896
5983.7 5983.7 1.000000 0.018695 80.8472 8.807474 1.634757
5984.45 5984.45 1.000000 0.019939 80.7232 8.798055 1.632256
5985.2 5985.2 1.000000 0.019789 80.5705 8.786005 1.628548
5985.95 5985.95 1.000000 0.057892 80.3987 8.769247 1.623599
5986.7 5986.7 1.000000 0.013617 80.2076 8.751810 1.618770
5987.45 5987.45 1.000000 0.053640 79.9315 8.719502 1.610931
5988.2 5988.2 1.000000 0.012665 79.502 8.667347 1.594625
5988.95 5988.95 1.000000 0.032921 78.7811 8.576950 1.546884
5989.7 5989.7 1.000000 0.038722 77.2815 8.389095 1.461694
5990.45 5990.45 1.000000 0.049686 72.8259 7.857711 1.341140
5991.2 5991.2 1.000000 0.027218 61.2305 6.512804 1.093270
5991.95 5991.95 1.000000 0.051183 64.1313 6.521756 1.066502
5992.7 5992.7 1.000000 0.019321 79.5453 7.114981 1.158467
5993.45 5993.45 1.000000 0.024490 81.5135 6.051624 0.972366
5994.2 5994.2 1.000000 0.044525 81.6258 7.155780 1.139881
5994.95 5994.95 1.000000 0.050139 81.6958 8.265099 1.317096
5995.7 5995.7 1.000000 0.024614 81.5881 8.582641 1.371430
5996.45 5996.45 1.000000 0.032317 81.4788 8.688154 1.387209
5997.2 5997.2 1.000000 0.030897 81.3855 8.704263 1.376758
5997.95 5997.95 1.000000 0.063938 81.2774 8.659892 1.343387
5998.7 5998.7 1.000000 0.025486 81.181 8.572837 1.298884
5999.45 5999.45 1.000000 0.046475 81.1054 8.436596 1.250752
6000.2 6000.2 1.000000 0.056507 81.0386 8.324331 1.207519
6000.95 6000.95 1.000000 0.037611 81.0016 8.278845 1.177841
6001.7 6001.7 1.000000 0.050767 80.929 8.305844 1.169675
6002.45 6002.45 1.000000 0.059301 80.8831 8.341595 1.161353
6003.2 6003.2 1.000000 0.038136 80.8132 8.344159 1.149632
6003.95 6003.95 1.000000 0.057090 80.7702 8.306833 1.134671
6004.7 6004.7 1.000000 0.045422 80.8514 8.230827 1.113537
6005.45 6005.45 1.000000 0.050901 80.8036 8.093267 1.085784
6006.2 6006.2 1.000000 0.066055 80.7294 7.846905 1.041341
6006.95 6006.95 1.000000 0.030993 80.6763 7.481061 0.984453
6007.7 6007.7 1.000000 0.038227 80.6429 7.115453 0.927790
6008.45 6008.45 1.000000 0.084444 80.573 6.845877 0.881842
6009.2 6009.2 1.000000 0.061383 80.5587 6.683672 0.854217
6009.96 6009.95 1.000000 0.049760 80.5009 6.603641 0.844075
6010.7 6010.7 1.000000 0.044898 80.463 6.572003 0.850933
6011.45 6011.45 1.000000 0.044764 80.426 6.565081 0.861733
6012.2 6012.2 1.000000 0.047338 80.3684 6.581953 0.877585
6012.95 6012.95 1.000000 0.067371 80.3287 6.610927 0.891372
6013.7 6013.7 1.000000 0.037756 80.2989 6.623425 0.902892
6014.45 6014.45 1.000000 0.025562 80.2629 6.609795 0.904302
6015.2 6015.2 1.000000 0.051501 80.2013 6.569460 0.897427
6015.95 6015.95 1.000000 0.031856 80.1607 6.505912 0.886439
6016.7 6016.7 1.000000 0.025236 80.0921 6.439955 0.871772
6017.45 6017.45 1.000000 0.012528 80.1883 6.412222 0.862160
6018.2 6018.2 1.000000 0.057575 80.1581 6.392359 0.855806
6018.95 6018.95 1.000000 0.039567 80.1072 6.366886 0.847274
6021.38 6021.38 1.000000 0.032087 79.9871 6.242056 0.835018
6024.79 6024.78 1.000000 0.056786 79.8021 6.235304 0.841601
6028.36 6028.36 1.000000 0.033431 79.6043 6.206359 0.822118
6032.12 6032.11 1.000000 0.040339 79.4325 6.185055 0.815900
6036.03 6036.03 1.000000 0.051948 79.2399 6.072958 0.801595
6040.14 6040.13 1.000000 0.040054 79.0121 6.034169 0.791715
6044.4 6044.39 1.000000 0.059827 78.794 6.254857 0.829596
6048.84 6048.83 1.000000 0.012875 78.5748 6.447031 0.866202
6053.44 6053.44 1.000000 0.044774 78.4416 6.588622 0.908973
6058.22 6058.21 1.000000 0.065280 78.0348 6.684130 0.941833
6063.18 6063.17 1.000000 0.045542 77.6583 6.786718 0.957429
6068.3 6068.29 1.000000 0.046588 77.3499 6.836465 0.942472
6073.59 6073.58 1.000000 0.060011 77.0604 6.820109 0.933619
6079.05 6079.04 1.000000 0.048252 76.7046 6.787614 0.959874
6084.68 6084.68 1.000000 0.061298 76.3169 6.778067 0.986429
6090.5 6090.49 1.000000 0.033592 75.9271 6.798627 0.966107
6096.47 6096.47 1.000000 0.074915 75.4497 6.788528 0.922932
6102.63 6102.62 1.000000 0.033335 75.0116 6.757910 0.916871
6108.95 6108.94 1.000000 0.053505 74.4917 6.719721 0.958913
6115.44 6115.43 1.000000 0.055968 73.9297 6.680312 0.986123
6122.11 6122.1 1.000000 0.042867 73.303 6.635821 0.979653
6128.94 6128.94 1.000000 0.057118 72.6725 6.641838 0.989196
6135.93 6135.94 1.000000 0.020899 71.9265 6.676075 1.008209
6143.13 6143.12 1.000000 0.035196 71.0969 6.704563 1.008347
6150.46 6150.47 1.000000 0.079794 70.2479 6.721739 1.006018
6157.98 6157.99 1.000000 0.044340 68.6558 6.657849 0.994034
6165.68 6165.69 1.000000 0.057441 64.4603 6.331486 0.931239
6173.54 6173.55 1.000000 0.062060 68.0293 6.771060 1.021064
6181.59 6181.59 1.000000 0.076958 66.6944 6.719887 1.043238
6189.79 6189.8 1.000000 0.049701 65.3585 6.659700 1.045719
6198.17 6198.18 1.000000 0.048327 63.9868 6.584152 1.046481
6206.72 6206.73 1.000000 0.093397 62.5216 6.495172 1.043601
6215.43 6215.45 1.000000 0.075774 61.0036 6.395663 1.044714
6224.32 6224.34 1.000000 0.077814 59.3981 6.286843 1.027608
6233.41 6233.41 1.000000 0.017407 57.7497 6.170336 0.996539
6242.66 6242.65 1.000000 0.068431 56.0655 6.050258 0.970560
6252.06 6252.05 1.000000 0.095748 54.4283 5.937961 0.969509
6261.64 6261.63 1.000000 0.076926 52.6633 5.814551 0.978236
6271.39 6271.38 1.000000 0.099117 50.8686 5.687846 0.965156
6281.32 6281.31 1.000000 0.098797 49.1032 5.563369 0.955466
6291.41 6291.4 1.000000 0.079680 47.3064 5.433998 0.936287
6301.68 6301.67 1.000000 0.067414 45.5641 5.306051 0.928004
6312.09 6312.1 1.000000 0.059776 43.8377 5.173880 0.909448
6322.72 6322.71 1.000000 0.074651 42.1635 5.044261 0.886061
6333.48 6333.49 1.000000 0.095522 40.5259 4.913647 0.865307
6344.43 6344.44 1.000000 0.108132 38.9535 4.785024 0.849934
6355.55 6355.56 1.000000 0.056921 37.4492 4.658412 0.837169
6366.85 6366.86 1.000000 0.046237 35.9974 4.536147 0.827322
6378.31 6378.32 1.000000 0.061544 34.6277 4.418908 0.814144
6389.94 6389.96 1.000000 0.066023 33.2838 4.303274 0.799040
6401.76 6401.77 1.000000 0.101212 32.0292 4.195868 0.783309
6413.74 6413.75 1.000000 0.064989 30.8335 4.092300 0.769436
6425.89 6425.9 1.000000 0.021608 29.7013 3.997301 0.757863
6438.21 6438.22 1.000000 0.040259 28.6685 3.912552 0.745858
6450.71 6450.72 1.000000 0.054433 27.6613 3.829523 0.738675
6463.38 6463.38 1.000000 0.060113 26.6685 3.747978 0.729217
6476.2 6476.22 1.000000 0.126051 25.8175 3.681673 0.720568
6489.22 6489.23 1.000000 0.083719 24.997 3.618225 0.714483
6502.4 6502.41 1.000000 0.020728 24.2185 3.558366 0.712350
6515.76 6515.76 1.000000 0.168683 23.4624 3.497125 0.704965
6529.26 6529.28 1.000000 0.043756 22.7464 3.439849 0.699793
6542.96 6542.98 1.000000 0.055503 22.0597 3.383504 0.694430
6556.84 6556.84 1.000000 0.023633 21.3919 3.327524 0.686607
6570.88 6570.88 1.000000 0.109794 20.7674 3.277120 0.683581
6585.09 6585.09 1.000000 0.080406 20.1604 3.227358 0.679027
6599.47 6599.47 1.000000 0.089844 19.6189 3.185840 0.677935
6614.02 6614.02 1.000000 0.065067 19.0406 3.137116 0.672925
6628.74 6628.74 1.000000 0.027273 18.4654 3.086814 0.670229
6643.65 6643.64 1.000000 0.150228 17.9602 3.046942 0.666262
6658.7 6658.7 1.000000 0.102514 17.4423 3.004751 0.662946
6673.95 6673.94 1.000000 0.102210 16.9469 2.962626 0.662853
6689.34 6689.35 1.000000 0.150682 16.4452 2.918432 0.658642
6704.94 6704.93 1.000000 0.136815 15.9725 2.877969 0.655989
6720.67 6720.68 1.000000 0.032573 15.4887 2.832604 0.654110
6731.29 6731.28 1.000000 0.042966 15.1785 2.804724 0.649438