Folder: webxdiviewer/xdidata/Cs

Note: xdidata/README.md
# bmm-standards
A pretty webpage for BMM's collection of common XAFS materials

[BMM's common materials collection](./BMM-standards.html)

Plotting of the data will happen soon.

Periodic table adapted from [some guy named Daniel](https://codepen.io/gooseofmusic/pen/PjKdNQ)

[This](https://www.coderstool.com/scss-to-css) is a helpful tool for
dealing with Sassy CSS.

File: Cs-L1-CesiumNitrate.xdi
# XDI/1.0 BlueSky/1.10.0 BMM/2023-1.0-py310-tiled
# Beamline.name: BMM (06BM) -- Beamline for Materials Measurement (NIST)
# Beamline.xray_source: NSLS-II three-pole wiggler
# Beamline.collimation: paraboloid mirror, 5 nm Rh on 30 nm Pt
# Beamline.focusing: not in use
# Beamline.harmonic_rejection: flat mirror, Si stripe, pitch = 7.0 mrad relative to beam
# Beamline.software: Bluesky 1.10.0, Ophyd 1.7.0, DataBroker 2.0.0b13, Python 3.10.8, 2023-1.0-py310-tiled
# Detector.I0: 10 cm N2
# Detector.I1: 25 cm N2
# Detector.I2: 25 cm N2
# Element.symbol: Cs
# Element.edge: L1
# Element.reference: Cs
# Element.reference_material: CsNO3
# Facility.name: NSLS-II
# Facility.energy: 3.0
# Facility.current: 400.1
# Facility.mode: top-off
# Facility.GUP: 301027
# Facility.SAF: 310583
# Facility.cycle: 2023-2
# Mono.name: Si(111)
# Mono.d_spacing: 3.13519
# Mono.encoder_resolution: 0.0000050 deg/ct
# Mono.angle_offset: 16.0754 deg
# Mono.scan_mode: pseudo channel cut
# Mono.scan_type: step
# Mono.direction: forward in energy
# Sample.name: CsNO3
# Sample.prep: PEG pellet
# Sample.x: 109.138 mm
# Sample.y: 153.150 mm
# Sample.SDD_position: 205.000 mm
# Scan.experimenters: Bruce Ravel
# Scan.edge_energy: 5714.3
# Scan.start_time: 2023-05-28T11:24:50
# Scan.end_time: 2023-05-28T11:32:53
# Scan.transient_id: 78637
# Scan.uid: 978fbc65-d652-4abf-8b2f-789fcd1061a3
# Scan.plot_hint: ln(It/Ir)  --  ln($6/$7)
# Column.1: energy eV
# Column.2: requested_energy eV
# Column.3: measurement_time seconds
# Column.4: xmu
# Column.5: I0 nA
# Column.6: It nA
# Column.7: Ir nA
# ///////////
# sample courtesy Martin Stennett, University of Sheffield
# -----------
# energy  requested_energy  measurement_time  xmu  I0  It  Ir
  5514.312  5514.300  0.500  3.332265  108.005  48.2234  1.722159
  5544.313  5544.300  0.500  3.283628  109.447  50.0497  1.876463
  5574.312  5574.300  0.500  3.236454  110.855  51.8669  2.038526
  5604.286  5604.300  0.500  3.190587  112.104  53.6934  2.209362
  5634.294  5634.300  0.500  3.146079  112.991  55.3582  2.381535
  5664.296  5664.300  0.500  3.102458  114.067  57.0991  2.565952
  5686.293  5686.300  0.500  3.071663  114.812  58.381  2.705610
  5692.291  5692.300  0.500  3.063340  114.995  58.6941  2.742853
  5698.304  5698.300  0.500  3.055531  115.186  59.0789  2.782478
  5704.300  5704.300  0.500  3.047803  115.345  59.4348  2.820961
  5705.186  5705.200  0.500  3.046613  115.367  59.4613  2.825577
  5706.092  5706.100  0.500  3.045486  115.368  59.5121  2.831177
  5706.989  5707.000  0.500  3.044184  115.418  59.5839  2.838289
  5707.892  5707.900  0.500  3.043097  115.43  59.6183  2.843018
  5708.792  5708.800  0.500  3.042048  115.439  59.6529  2.847652
  5709.694  5709.700  0.500  3.040998  115.471  59.7032  2.853045
  5710.594  5710.600  0.500  3.039892  115.495  59.7443  2.858172
  5711.497  5711.500  0.500  3.039377  115.516  59.7739  2.861059
  5712.393  5712.400  0.500  3.038446  115.533  59.8493  2.867340
  5713.300  5713.300  0.500  3.037821  115.545  59.907  2.871895
  5714.197  5714.200  0.500  3.037631  115.554  59.9431  2.874173
  5715.099  5715.100  0.500  3.037797  115.556  59.9578  2.874400
  5715.998  5716.000  0.500  3.039324  115.585  60.058  2.874811
  5716.896  5716.900  0.500  3.040947  115.594  60.0461  2.869579
  5717.800  5717.800  0.500  3.043559  115.905  60.2459  2.871617
  5718.701  5718.700  0.500  3.047325  115.962  60.3164  2.864168
  5719.600  5719.600  0.500  3.050600  116.016  60.3775  2.857696
  5720.497  5720.500  0.500  3.050721  116.018  60.4077  2.858782
  5721.400  5721.400  0.500  3.048993  116.036  60.4541  2.865924
  5722.302  5722.300  0.500  3.047963  116.069  60.5097  2.871520
  5723.200  5723.200  0.500  3.047796  116.078  60.5643  2.874590
  5724.103  5724.100  0.500  3.047098  116.077  60.5697  2.876853
  5725.002  5725.000  0.500  3.046267  116.105  60.666  2.883822
  5725.901  5725.900  0.500  3.045474  116.119  60.726  2.888967
  5726.804  5726.800  0.500  3.043697  116.132  60.7827  2.896802
  5727.701  5727.700  0.500  3.040850  116.133  60.8138  2.906549
  5728.602  5728.600  0.500  3.038157  116.154  60.8597  2.916585
  5729.507  5729.500  0.500  3.035820  116.171  60.9038  2.925528
  5730.402  5730.400  0.500  3.033723  116.168  60.9561  2.934188
  5731.301  5731.300  0.500  3.031989  116.194  60.9901  2.940921
  5732.205  5732.200  0.500  3.030273  116.211  61.0667  2.949672
  5733.099  5733.100  0.500  3.028281  116.228  61.1063  2.957469
  5734.001  5734.000  0.500  3.026460  116.239  61.0713  2.961164
  5734.903  5734.900  0.500  3.024826  116.27  61.1496  2.969806
  5735.799  5735.800  0.500  3.023823  116.248  61.1813  2.974329
  5736.703  5736.700  0.500  3.023441  116.251  61.2075  2.976743
  5737.602  5737.600  0.500  3.022691  116.248  61.2338  2.980251
  5738.502  5738.500  0.500  3.022084  116.284  61.2991  2.985244
  5739.298  5739.300  0.500  3.021049  116.3  61.3724  2.991908
  5742.307  5742.310  0.500  3.017825  116.359  61.5428  3.009902
  5745.502  5745.500  0.500  3.014058  116.414  61.7065  3.029298
  5748.868  5748.860  0.500  3.009744  116.476  61.8774  3.050820
  5752.386  5752.380  0.500  3.005061  116.538  62.065  3.074434
  5756.085  5756.080  0.500  2.999884  116.592  62.2356  3.098886
  5759.957  5759.950  0.500  2.994124  116.657  62.4107  3.125557
  5764.008  5764.000  0.500  2.988336  116.748  62.6551  3.156013
  5768.216  5768.210  0.500  2.982626  116.845  62.8908  3.186024
  5772.592  5772.590  0.500  2.976902  116.891  63.1123  3.215597
  5777.157  5777.150  0.500  2.971145  116.937  63.2905  3.243297
  5781.889  5781.880  0.500  2.965328  117.013  63.5429  3.275227
  5786.791  5786.780  0.500  2.958791  117.095  63.8209  3.311128
  5791.857  5791.850  0.500  2.952533  117.153  64.0503  3.343891
  5797.094  5797.090  0.500  2.945720  117.201  64.2647  3.378021
  5802.520  5802.510  0.500  2.938393  117.206  64.52  3.416382
  5808.096  5808.090  0.500  2.931419  117.257  64.7899  3.454684
  5813.854  5813.850  0.500  2.924116  117.254  65.0681  3.494947
  5819.790  5819.780  0.500  2.916710  117.263  65.3264  3.534904
  5825.888  5825.880  0.500  2.909153  117.277  65.5901  3.576098
  5832.154  5832.150  0.500  2.901697  117.263  65.8307  3.616077
  5838.597  5838.590  0.500  2.893850  117.219  66.1093  3.659988
  5845.209  5845.200  0.500  2.885402  117.164  66.3276  3.703223
  5851.996  5851.990  0.500  2.877109  117.07  66.5531  3.746758
  5858.959  5858.950  0.500  2.868599  116.868  66.7535  3.790159
  5866.076  5866.070  0.500  2.859593  116.379  66.7802  3.825974
  5873.376  5873.370  0.500  2.850176  89.8495  51.7725  2.994217
  5880.861  5880.850  0.500  2.841761  117.527  68.0689  3.969972
  5888.502  5888.490  0.500  2.832632  117.413  68.3298  4.021739
  5896.310  5896.300  0.500  2.823387  117.123  68.4869  4.068422
  5904.301  5904.290  0.500  2.813819  116.667  68.5607  4.111963
  5912.463  5912.450  0.500  2.803731  115.388  68.1342  4.127816
  5920.792  5920.770  0.500  2.793954  117.205  69.5564  4.255380
  5929.280  5929.270  0.500  2.783930  115.106  68.659  4.242797
  5937.975  5937.950  0.500  2.773631  116.179  69.6548  4.348894
  5946.813  5946.790  0.500  2.764074  111.093  66.9932  4.222879
  5955.817  5955.800  0.500  2.752856  116.415  70.5721  4.498658
  5964.998  5964.990  0.500  2.742352  115.761  70.5463  4.544498
  5974.355  5974.350  0.500  2.731544  115.097  70.4884  4.590112
  5983.873  5983.870  0.500  2.720474  113.941  70.218  4.623401
  5993.577  5993.570  0.500  2.709379  115.586  71.6221  4.768464
  6003.456  6003.450  0.500  2.698275  114.265  71.1975  4.793130
  6013.496  6013.490  0.500  2.687032  113.445  71.0825  4.839491
  6023.710  6023.700  0.500  2.675458  112.664  71.0142  4.891125
  6034.114  6034.090  0.500  2.663909  111.871  70.9878  4.946100
  6044.665  6044.650  0.500  2.652176  110.973  70.7805  4.989861
  6055.366  6055.380  0.500  2.640330  109.917  70.555  5.033228
  6066.294  6066.280  0.500  2.628156  108.59  70.0691  5.059798
  6077.388  6077.350  0.500  2.616041  107.453  69.7852  5.100720
  6088.572  6088.590  0.500  2.603599  106.163  69.338  5.131476
  6100.049  6100.010  0.500  2.591109  104.741  68.8758  5.161337
  6111.576  6111.590  0.500  2.578843  103.151  68.242  5.176952
  6123.333  6123.350  0.500  2.565985  101.433  67.5298  5.189217
  6135.265  6135.280  0.500  2.552739  99.5559  66.7088  5.194490
  6147.370  6147.380  0.500  2.540261  97.3611  65.6495  5.176191
  6159.636  6159.650  0.500  2.527361  92.9633  63.063  5.036811
  6172.074  6172.090  0.500  2.514403  94.2245  64.3495  5.206593
  6184.700  6184.710  0.500  2.501132  91.1649  62.6814  5.139380
  6197.478  6197.490  0.500  2.487652  88.4291  61.1506  5.081912
  6210.427  6210.450  0.500  2.474191  85.6186  59.6101  5.021024
  6223.565  6223.580  0.500  2.460752  82.7638  58.025  4.953637
  6236.859  6236.880  0.500  2.447418  79.8679  56.3526  4.875441
  6250.335  6250.350  0.500  2.433642  76.9169  54.6327  4.792208
  6263.989  6264.000  0.500  2.419699  73.984  52.9065  4.705950
  6277.796  6277.810  0.500  2.406174  71.116  51.1839  4.614722
  6291.787  6291.800  0.500  2.392191  68.2605  49.4765  4.523597
  6305.945  6305.960  0.500  2.378596  65.4747  47.7691  4.427270
  6320.282  6320.290  0.500  2.364571  62.7686  46.083  4.331319
  6334.773  6334.790  0.500  2.350606  60.1488  44.4911  4.240508
  6349.451  6349.460  0.500  2.336819  57.6056  42.8773  4.143427
  6364.287  6364.300  0.500  2.322951  55.1663  41.3339  4.050059
  6379.311  6379.320  0.500  2.308880  52.8192  39.8539  3.960384
  6394.488  6394.500  0.500  2.295205  50.5702  38.4335  3.871815
  6409.840  6409.860  0.500  2.281323  48.4152  37.04  3.783597
  6425.376  6425.390  0.500  2.267277  46.3879  35.7351  3.701935
  6441.075  6441.090  0.500  2.253289  44.4035  34.4389  3.617914
  6456.944  6456.960  0.500  2.239133  42.5741  33.2495  3.542759
  6473.003  6473.010  0.500  2.225041  40.7808  32.0671  3.465270
  6489.226  6489.220  0.500  2.210605  39.1165  30.9745  3.395872
  6505.614  6505.610  0.500  2.196548  37.6746  30.0363  3.339627
  6522.164  6522.170  0.500  2.182263  36.1941  29.0514  3.276595
  6538.890  6538.900  0.500  2.168043  34.7809  28.0908  3.213620
  6555.789  6555.800  0.500  2.154040  33.4375  27.2082  3.156545
  6567.163  6567.160  0.500  2.144496  32.587  26.6411  3.120394

File: Cs-L3-CesiumNitrate.xdi
# XDI/1.0 BlueSky/1.10.0 BMM/2023-1.0-py310-tiled
# Beamline.name: BMM (06BM) -- Beamline for Materials Measurement (NIST)
# Beamline.xray_source: NSLS-II three-pole wiggler
# Beamline.collimation: paraboloid mirror, 5 nm Rh on 30 nm Pt
# Beamline.focusing: not in use
# Beamline.harmonic_rejection: flat mirror, Si stripe, pitch = 7.0 mrad relative to beam
# Beamline.software: Bluesky 1.10.0, Ophyd 1.7.0, DataBroker 2.0.0b13, Python 3.10.8, 2023-1.0-py310-tiled
# Detector.I0: 10 cm N2
# Detector.I1: 25 cm N2
# Detector.I2: 25 cm N2
# Element.symbol: Cs
# Element.edge: L3
# Element.reference: Cs
# Element.reference_material: CsNO3
# Facility.name: NSLS-II
# Facility.energy: 3.0
# Facility.current: 399.5
# Facility.mode: top-off
# Facility.GUP: 301027
# Facility.SAF: 310583
# Facility.cycle: 2023-2
# Mono.name: Si(111)
# Mono.d_spacing: 3.13519
# Mono.encoder_resolution: 0.0000050 deg/ct
# Mono.angle_offset: 16.0754 deg
# Mono.scan_mode: pseudo channel cut
# Mono.scan_type: step
# Mono.direction: forward in energy
# Sample.name: CsNO3
# Sample.prep: PEG pellet
# Sample.x: 109.138 mm
# Sample.y: 153.150 mm
# Sample.SDD_position: 205.000 mm
# Scan.experimenters: Bruce Ravel
# Scan.edge_energy: 5011.9
# Scan.start_time: 2023-05-28T10:56:11
# Scan.end_time: 2023-05-28T11:02:21
# Scan.transient_id: 78616
# Scan.uid: 3115f1da-9cef-4405-ad80-2c708dfee32e
# Scan.plot_hint: ln(It/Ir)  --  ln($6/$7)
# Column.1: energy eV
# Column.2: requested_energy eV
# Column.3: measurement_time seconds
# Column.4: xmu
# Column.5: I0 nA
# Column.6: It nA
# Column.7: Ir nA
# ///////////
# sample courtesy Martin Stennett, University of Sheffield
# -----------
# energy  requested_energy  measurement_time  xmu  I0  It  Ir
  4811.907  4811.900  0.500  4.569123  75.8907  16.0848  0.166752
  4831.903  4831.900  0.500  4.515461  77.749  16.9266  0.185152
  4851.904  4851.900  0.500  4.461514  79.2522  17.7393  0.204798
  4871.903  4871.900  0.500  4.408130  80.6654  18.5289  0.225644
  4891.899  4891.900  0.500  4.355728  82.0745  19.3489  0.248306
  4911.902  4911.900  0.500  4.304414  83.3616  20.1652  0.272408
  4931.902  4931.900  0.500  4.252706  84.5855  20.9853  0.298531
  4951.907  4951.900  0.500  4.201599  85.7001  21.7641  0.325843
  4971.899  4971.900  0.500  4.153173  86.6145  22.5623  0.354556
  4983.902  4983.900  0.500  4.125705  86.9618  22.9967  0.371445
  4987.907  4987.900  0.500  4.116748  87.0733  23.1499  0.377284
  4991.903  4991.900  0.500  4.108157  87.1804  23.2949  0.382923
  4995.904  4995.900  0.500  4.101731  87.3026  23.4126  0.387338
  4999.902  4999.900  0.500  4.095184  87.4259  23.5706  0.392514
  5002.197  5002.200  0.500  4.093509  87.4995  23.6216  0.394023
  5002.792  5002.800  0.500  4.093724  87.5196  23.6746  0.394821
  5003.392  5003.400  0.500  4.093458  87.5344  23.6961  0.395285
  5003.994  5004.000  0.500  4.093531  87.5457  23.6837  0.395049
  5004.593  5004.600  0.500  4.094781  87.5487  23.7197  0.395156
  5005.193  5005.200  0.500  4.095673  87.5639  23.7376  0.395101
  5005.795  5005.800  0.500  4.096373  87.5853  23.7484  0.395005
  5006.394  5006.400  0.500  4.098153  87.5852  23.7682  0.394631
  5006.995  5007.000  0.500  4.100723  87.614  23.834  0.394708
  5007.595  5007.600  0.500  4.103461  87.6219  23.819  0.393380
  5008.197  5008.200  0.500  4.107651  87.6306  23.8265  0.391859
  5008.797  5008.800  0.500  4.113561  87.6553  23.856  0.390033
  5009.395  5009.400  0.500  4.121076  87.6614  23.9078  0.387952
  5010.000  5010.000  0.500  4.130116  87.6742  23.9227  0.384702
  5010.597  5010.600  0.500  4.143365  87.6907  23.9402  0.379916
  5011.197  5011.200  0.500  4.161593  87.7042  23.9542  0.373271
  5011.800  5011.800  0.500  4.185659  87.7171  23.9683  0.364609
  5012.401  5012.400  0.500  4.216483  87.7386  24.0031  0.354055
  5012.996  5013.000  0.500  4.253654  87.7447  24.0161  0.341322
  5013.600  5013.600  0.500  4.291572  87.7377  24.0126  0.328574
  5014.200  5014.200  0.500  4.323137  87.7595  24.0444  0.318786
  5014.798  5014.800  0.500  4.338944  87.8003  24.0459  0.313806
  5015.402  5015.400  0.500  4.337216  87.8002  24.1016  0.315078
  5015.999  5016.000  0.500  4.317365  87.8171  24.1213  0.321657
  5016.601  5016.600  0.500  4.293509  87.8371  24.1448  0.329744
  5017.201  5017.200  0.500  4.273235  87.8428  24.1654  0.336783
  5017.802  5017.800  0.500  4.257637  87.8567  24.181  0.342299
  5018.398  5018.400  0.500  4.245750  87.8717  24.1927  0.346560
  5019.003  5019.000  0.500  4.236652  87.8785  24.2088  0.349961
  5019.605  5019.600  0.500  4.230644  87.9031  24.2206  0.352241
  5020.203  5020.200  0.500  4.226971  87.8965  24.2432  0.353868
  5020.800  5020.800  0.500  4.222703  87.9172  24.2649  0.355699
  5021.403  5021.400  0.500  4.218115  87.9259  24.285  0.357630
  5022.004  5022.000  0.500  4.213397  87.9188  24.318  0.359809
  5022.603  5022.600  0.500  4.209385  87.9399  24.3313  0.361454
  5023.202  5023.200  0.500  4.206923  87.9693  24.346  0.362564
  5023.802  5023.800  0.500  4.205458  87.9563  24.3764  0.363548
  5024.400  5024.400  0.500  4.205101  87.9785  24.4113  0.364200
  5025.000  5025.000  0.500  4.205214  87.9864  24.4271  0.364393
  5025.602  5025.600  0.500  4.205104  88.0074  24.4495  0.364767
  5026.203  5026.200  0.500  4.205632  88.0019  24.4682  0.364854
  5026.798  5026.800  0.500  4.206229  88.0175  24.4742  0.364726
  5027.401  5027.400  0.500  4.207215  88.0396  24.5011  0.364767
  5028.001  5028.000  0.500  4.208394  88.0626  24.5391  0.364902
  5028.599  5028.600  0.500  4.209616  88.0888  24.5697  0.364911
  5029.201  5029.200  0.500  4.210968  88.1159  24.5778  0.364537
  5029.803  5029.800  0.500  4.213132  88.1154  24.5817  0.363807
  5030.399  5030.400  0.500  4.214400  88.1322  24.6239  0.363970
  5031.000  5031.000  0.500  4.214906  88.1128  24.6049  0.363506
  5031.604  5031.600  0.500  4.214042  88.139  24.655  0.364561
  5032.203  5032.200  0.500  4.211188  88.1714  24.685  0.366048
  5032.800  5032.800  0.500  4.207319  88.1597  24.7043  0.367754
  5033.403  5033.400  0.500  4.202386  88.1768  24.6927  0.369400
  5034.004  5034.000  0.500  4.198600  88.1958  24.7123  0.371095
  5034.603  5034.600  0.500  4.194733  88.2124  24.7591  0.373238
  5035.198  5035.200  0.500  4.191812  88.2188  24.7819  0.374674
  5035.803  5035.800  0.500  4.188541  88.2354  24.7958  0.376112
  5036.404  5036.400  0.500  4.185875  88.5  24.8805  0.378405
  5036.897  5036.900  0.500  4.183502  88.5289  24.8973  0.379560
  5038.898  5038.890  0.500  4.176859  88.5813  24.9559  0.382989
  5040.953  5040.960  0.500  4.169817  88.6349  25.0443  0.387062
  5043.097  5043.100  0.500  4.163547  88.6942  25.119  0.390658
  5045.323  5045.320  0.500  4.159050  88.754  25.1993  0.393674
  5047.615  5047.610  0.500  4.155310  88.8256  25.3061  0.396824
  5049.985  5049.980  0.500  4.150039  88.9127  25.402  0.400432
  5052.439  5052.430  0.500  4.146567  88.9698  25.4945  0.403288
  5054.955  5054.950  0.500  4.142454  89.0198  25.5903  0.406472
  5057.558  5057.550  0.500  4.138651  89.1109  25.6605  0.409140
  5060.236  5060.230  0.500  4.134067  89.1791  25.7587  0.412593
  5062.986  5062.980  0.500  4.129472  89.2441  25.8654  0.416210
  5065.816  5065.810  0.500  4.121068  89.3062  25.9544  0.421166
  5068.718  5068.710  0.500  4.113962  89.3592  26.0717  0.426087
  5071.709  5071.690  0.500  4.106442  89.4298  26.1863  0.431190
  5074.759  5074.750  0.500  4.098122  89.483  26.2871  0.436467
  5077.899  5077.880  0.500  4.091348  89.5116  26.383  0.441036
  5081.112  5081.090  0.500  4.084502  89.5633  26.5003  0.446041
  5084.400  5084.380  0.500  4.078529  89.6198  26.6075  0.450527
  5087.757  5087.740  0.500  4.071403  89.636  26.6948  0.455238
  5091.198  5091.180  0.500  4.065099  89.6662  26.8049  0.460006
  5094.706  5094.690  0.500  4.058342  89.6763  26.913  0.464993
  5098.299  5098.280  0.500  4.050922  89.6843  27.0295  0.470484
  5101.960  5101.950  0.500  4.043918  89.6704  27.1136  0.475265
  5105.691  5105.690  0.500  4.036560  89.6365  27.2316  0.480858
  5109.505  5109.510  0.500  4.029394  89.611  27.3286  0.486043
  5113.408  5113.410  0.500  4.020535  89.5476  27.4447  0.492450
  5117.395  5117.380  0.500  4.011665  89.4685  27.5487  0.498721
  5121.410  5121.420  0.500  4.003688  89.3841  27.6314  0.504223
  5125.552  5125.550  0.500  3.994928  89.2691  27.7427  0.510709
  5129.760  5129.750  0.500  3.986827  89.154  27.8184  0.516268
  5134.029  5134.020  0.500  3.978210  88.9936  27.9106  0.522462
  5138.391  5138.380  0.500  3.970033  88.8412  27.9816  0.528091
  5142.806  5142.800  0.500  3.961352  88.6616  28.0508  0.534013
  5147.311  5147.310  0.500  3.952514  88.4711  28.1228  0.540136
  5151.893  5151.890  0.500  3.943737  88.2384  28.1723  0.545858
  5156.551  5156.550  0.500  3.934274  88.0597  28.2385  0.552342
  5161.282  5161.280  0.500  3.925229  87.8667  28.3589  0.559737
  5166.094  5166.090  0.500  3.915896  87.6622  28.4181  0.566164
  5170.972  5170.970  0.500  3.907265  87.4602  28.5074  0.572866
  5175.944  5175.940  0.500  3.897073  87.2637  28.6074  0.580765
  5180.970  5180.970  0.500  3.887305  87.0715  28.6762  0.587877
  5186.095  5186.090  0.500  3.876959  86.9145  28.7811  0.596163
  5191.285  5191.280  0.500  3.867149  86.7905  28.8749  0.604003
  5196.554  5196.550  0.500  3.856935  86.619  28.9819  0.612466
  5201.899  5201.890  0.500  3.846686  86.5013  29.1018  0.621335
  5207.311  5207.310  0.500  3.836354  86.3467  29.2016  0.629940
  5212.805  5212.800  0.500  3.825615  86.2554  29.3129  0.639169
  5218.377  5218.370  0.500  3.814318  86.194  29.476  0.650027
  5224.029  5224.020  0.500  3.802772  86.1199  29.6144  0.660663
  5229.774  5229.750  0.500  3.791599  86.0573  29.7406  0.670933
  5235.557  5235.550  0.500  3.780303  85.9873  29.9067  0.682345
  5241.427  5241.420  0.500  3.768843  85.9225  30.0398  0.693282
  5247.397  5247.370  0.500  3.757264  85.8713  30.1984  0.705057
  5253.421  5253.400  0.500  3.745531  85.7419  30.3362  0.716636
  5259.533  5259.510  0.500  3.733369  85.7538  30.5444  0.730383
  5265.703  5265.690  0.500  3.721664  85.7242  30.722  0.743277
  5271.942  5271.950  0.500  3.709513  85.7008  30.8738  0.756081
  5278.269  5278.280  0.500  3.697153  79.3779  28.7694  0.713308
  5284.686  5284.690  0.500  3.684894  85.4488  31.1781  0.782564
  5291.154  5291.170  0.500  3.672742  85.559  31.4383  0.798745
  5297.724  5297.740  0.500  3.660874  85.5174  31.6108  0.812715
  5304.362  5304.370  0.500  3.648549  85.4815  31.7712  0.826969
  5311.112  5311.090  0.500  3.635150  85.5621  32.0026  0.844227
  5317.875  5317.880  0.500  3.623100  85.5552  32.2051  0.859870
  5324.766  5324.750  0.500  3.610283  85.5887  32.4009  0.876257
  5331.683  5331.690  0.500  3.597265  85.5713  32.6059  0.893356
  5338.696  5338.710  0.500  3.584236  85.5674  32.8513  0.911883
  5345.785  5345.800  0.500  3.571802  85.5726  33.0599  0.929152