Folder: webxdiviewer/xdidata/Cu (part 2)

File: Cu-CuO.xdi
# XDI/1.0 BlueSky/1.10.0 BMM/2023-1.0-py310-tiled
# Beamline.name: BMM (06BM) -- Beamline for Materials Measurement (NIST)
# Beamline.xray_source: NSLS-II three-pole wiggler
# Beamline.collimation: paraboloid mirror, 5 nm Rh on 30 nm Pt
# Beamline.focusing: not in use
# Beamline.harmonic_rejection: flat mirror, Pt stripe, pitch = 7.0 mrad relative to beam
# Beamline.software: Bluesky 1.10.0, Ophyd 1.7.0, DataBroker 2.0.0b13, Python 3.10.8, 2023-1.0-py310-tiled
# Detector.I0: 10 cm N2
# Detector.I1: 25 cm N2
# Detector.I2: 25 cm N2
# Element.symbol: Cu
# Element.edge: K
# Element.reference: Cu
# Element.reference_material: Cu foil
# Facility.name: NSLS-II
# Facility.energy: 3.0
# Facility.current: 400.5
# Facility.mode: top-off
# Facility.GUP: 123456
# Facility.SAF: 301027
# Facility.cycle: 2023-2
# Mono.name: Si(111)
# Mono.d_spacing: 3.13519
# Mono.encoder_resolution: 0.0000050 deg/ct
# Mono.angle_offset: 16.0754 deg
# Mono.scan_mode: pseudo channel cut
# Mono.scan_type: step
# Mono.direction: forward in energy
# Sample.name: CuO
# Sample.prep: powder in PEG pellet
# Sample.x: 116.329 mm
# Sample.y: 114.126 mm
# Sample.SDD_position: 205.000 mm
# Scan.experimenters: Bruce Ravel
# Scan.edge_energy: 8978.9
# Scan.start_time: 2023-05-06T12:44:34
# Scan.end_time: 2023-05-06T12:52:37
# Scan.transient_id: 74798
# Scan.uid: 13a5d6a6-9e02-4598-89d1-f56ab40b3f90
# Scan.plot_hint: ln(I0/It)  --  ln($5/$6)
# Column.1: energy eV
# Column.2: requested_energy eV
# Column.3: measurement_time seconds
# Column.4: xmu
# Column.5: I0 nA
# Column.6: It nA
# Column.7: Ir nA
# ///////////
# sample courtesy Martin Stennett, University of Sheffield
# -----------
# energy  requested_energy  measurement_time  xmu  I0  It  Ir
  8778.923  8778.900  0.500  0.405082  123.017  82.0428  42.524
  8809.027  8808.900  0.500  0.394389  122.387  82.5  43.0404
  8839.011  8838.900  0.500  0.383932  121.773  82.9493  43.5583
  8868.924  8868.900  0.500  0.373718  121.146  83.3691  44.051
  8898.920  8898.900  0.500  0.363881  120.525  83.7618  44.5178
  8928.908  8928.900  0.500  0.354528  119.913  84.1197  44.9299
  8950.899  8950.900  0.500  0.349331  119.449  84.2302  45.0614
  8956.887  8956.900  0.500  0.348513  119.383  84.253  45.0504
  8962.893  8962.900  0.500  0.348029  119.253  84.202  44.9396
  8968.883  8968.900  0.500  0.349064  119.112  84.0156  44.629
  8969.769  8969.800  0.500  0.349460  119.088  83.9651  44.5486
  8970.674  8970.700  0.500  0.349808  119.061  83.9168  44.4631
  8971.581  8971.600  0.500  0.350360  119.044  83.859  44.3493
  8972.479  8972.500  0.500  0.351073  119.01  83.7747  44.2066
  8973.387  8973.400  0.500  0.351851  119.001  83.7032  44.0528
  8974.285  8974.300  0.500  0.352748  118.97  83.6067  43.8506
  8975.179  8975.200  0.500  0.353858  118.951  83.5008  43.5909
  8976.088  8976.100  0.500  0.355467  118.923  83.3464  43.2264
  8976.993  8977.000  0.500  0.357626  118.891  83.1446  42.7231
  8977.899  8977.900  0.500  0.360922  118.863  82.8516  41.9336
  8978.798  8978.800  0.500  0.367265  118.833  82.3071  40.4787
  8979.686  8979.700  0.500  0.374503  118.809  81.6966  37.5195
  8980.596  8980.600  0.500  0.376693  118.778  81.4967  31.5815
  8981.499  8981.500  0.500  0.383504  118.508  80.7593  24.9041
  8982.395  8982.400  0.500  0.398293  118.46  79.5415  21.8307
  8983.305  8983.300  0.500  0.420673  118.653  77.908  21.0951
  8984.188  8984.200  0.500  0.457479  118.641  75.0852  20.8836
  8985.095  8985.100  0.500  0.527373  118.608  69.9969  19.6536
  8986.009  8986.000  0.500  0.619024  118.591  63.8578  17.245
  8986.892  8986.900  0.500  0.676322  118.571  60.2917  15.426
  8987.789  8987.800  0.500  0.688080  118.976  59.7903  14.5966
  8988.707  8988.700  0.500  0.685741  118.946  59.9149  13.8263
  8989.602  8989.600  0.500  0.703502  118.903  58.8388  12.6094
  8990.506  8990.500  0.500  0.749548  118.867  56.1742  10.966
  8991.390  8991.400  0.500  0.804540  118.799  53.1382  9.316110
  8992.302  8992.300  0.500  0.866021  118.682  49.9201  7.773973
  8993.201  8993.200  0.500  0.931758  117.637  46.3327  6.467260
  8994.106  8994.100  0.500  0.976892  116.72  43.9428  5.628029
  8994.991  8995.000  0.500  1.000355  118.474  43.5685  5.339237
  8995.893  8995.900  0.500  1.020121  118.764  42.8206  5.265435
  8996.806  8996.800  0.500  1.040972  118.728  41.9242  5.344464
  8997.705  8997.700  0.500  1.066445  118.686  40.8551  5.439199
  8998.601  8998.600  0.500  1.088457  118.632  39.9475  5.525430
  8999.501  8999.500  0.500  1.092729  118.576  39.7584  5.640298
  9000.400  9000.400  0.500  1.082367  118.509  40.1499  5.715901
  9001.307  9001.300  0.500  1.069553  118.374  40.6215  5.655694
  9002.208  9002.200  0.500  1.053759  117.654  41.017  5.456130
  9003.097  9003.100  0.500  1.031147  116.134  41.4131  5.205838
  9003.897  9003.900  0.500  1.008700  117.822  42.9689  5.198183
  9006.924  9006.910  0.500  0.956904  118.4  45.4751  5.926926
  9010.125  9010.100  0.500  0.936146  116.694  45.7598  6.603194
  9013.482  9013.460  0.500  0.944387  118.324  46.0184  6.973663
  9017.010  9016.980  0.500  0.937761  118.188  46.271  6.784851
  9020.656  9020.680  0.500  0.920630  116.025  46.2089  6.247825
  9024.571  9024.550  0.500  0.885271  118.029  48.6992  6.055594
  9028.592  9028.600  0.500  0.868863  117.931  49.4635  6.053088
  9032.814  9032.810  0.500  0.881194  117.817  48.8101  6.582357
  9037.183  9037.190  0.500  0.909958  117.716  47.3855  6.777181
  9041.761  9041.750  0.500  0.941197  116.415  45.4206  6.408367
  9046.478  9046.480  0.500  0.959705  117.46  44.9878  6.312155
  9051.370  9051.380  0.500  0.969725  117.351  44.498  6.122535
  9056.446  9056.450  0.500  0.961775  117.225  44.8052  6.107207
  9061.692  9061.690  0.500  0.948139  117.022  45.3415  5.953671
  9067.106  9067.110  0.500  0.936106  116.971  45.8705  5.845325
  9072.680  9072.690  0.500  0.926909  116.866  46.2527  5.657428
  9078.452  9078.450  0.500  0.920133  116.72  46.5088  5.877051
  9084.381  9084.380  0.500  0.916008  116.545  46.6313  6.350203
  9090.489  9090.480  0.500  0.911160  116.426  46.8101  6.631578
  9096.759  9096.750  0.500  0.908259  116.292  46.8919  7.011273
  9103.187  9103.190  0.500  0.905326  115.186  46.5825  7.025844
  9109.811  9109.800  0.500  0.903592  115.959  46.9762  6.675505
  9116.595  9116.590  0.500  0.900839  115.802  47.0422  6.512243
  9123.551  9123.550  0.500  0.902448  115.641  46.901  6.415022
  9130.686  9130.670  0.500  0.909739  115.782  46.6172  5.821032
  9137.984  9137.970  0.500  0.912533  115.559  46.3977  5.801238
  9145.463  9145.450  0.500  0.909801  115.327  46.4312  6.177029
  9153.092  9153.090  0.500  0.905425  115.189  46.5791  6.899571
  9160.912  9160.900  0.500  0.899129  115.171  46.8657  7.487069
  9168.908  9168.890  0.500  0.888310  113.333  46.6197  7.011210
  9177.071  9177.050  0.500  0.876771  114.772  47.7592  6.784962
  9185.386  9185.370  0.500  0.877857  114.701  47.6779  6.834621
  9193.893  9193.870  0.500  0.879157  114.405  47.4932  6.873692
  9202.565  9202.550  0.500  0.873360  114.142  47.6594  6.882706
  9211.418  9211.390  0.500  0.866884  113.919  47.8757  6.595918
  9220.414  9220.400  0.500  0.865680  113.712  47.8461  6.700440
  9229.607  9229.590  0.500  0.867559  113.485  47.661  7.095711
  9238.966  9238.950  0.500  0.861171  113.261  47.8719  7.499047
  9248.496  9248.470  0.500  0.856642  113.037  47.9938  7.504537
  9258.180  9258.170  0.500  0.854863  112.81  47.9828  7.485581
  9268.073  9268.050  0.500  0.851308  112.568  48.0502  7.416789
  9278.113  9278.090  0.500  0.843129  112.356  48.3537  7.380945
  9288.310  9288.300  0.500  0.838265  112.088  48.4737  7.364826
  9298.706  9298.690  0.500  0.835101  110.18  47.7996  7.248386
  9309.278  9309.250  0.500  0.830684  111.667  48.6591  7.535384
  9319.998  9319.980  0.500  0.824811  111.381  48.8203  7.773014
  9330.898  9330.880  0.500  0.820759  111.143  48.9136  7.858506
  9341.982  9341.950  0.500  0.816868  110.872  48.9848  8.034654
  9353.222  9353.190  0.500  0.810638  110.582  49.1617  8.104097
  9364.629  9364.610  0.500  0.806698  110.306  49.2329  8.111836
  9376.208  9376.190  0.500  0.805396  110.019  49.1686  8.085695
  9387.962  9387.950  0.500  0.801833  109.715  49.2079  8.085809
  9399.898  9399.880  0.500  0.796464  109.421  49.3401  8.136313
  9411.999  9411.980  0.500  0.790348  109.104  49.4988  8.280769
  9424.270  9424.250  0.500  0.785431  108.779  49.5949  8.438584
  9436.720  9436.690  0.500  0.779108  107.95  49.529  8.484723
  9449.334  9449.310  0.500  0.773770  108.132  49.8783  8.635048
  9462.119  9462.090  0.500  0.769275  107.784  49.9417  8.741824
  9475.074  9475.050  0.500  0.765830  107.449  49.9581  8.809873
  9488.206  9488.180  0.500  0.761456  107.106  50.0172  8.848777
  9501.491  9501.480  0.500  0.756182  106.757  50.1178  8.875852
  9514.964  9514.950  0.500  0.751425  106.4  50.1882  8.921265
  9528.612  9528.600  0.500  0.745941  106.047  50.2967  9.055961
  9542.435  9542.410  0.500  0.740809  105.689  50.3847  9.175224
  9556.413  9556.400  0.500  0.736239  105.315  50.4368  9.261874
  9570.583  9570.560  0.500  0.731353  104.918  50.4927  9.350840
  9584.903  9584.890  0.500  0.727034  104.538  50.5273  9.440183
  9599.395  9599.390  0.500  0.721543  104.184  50.6335  9.531280
  9614.075  9614.060  0.500  0.716064  103.809  50.7287  9.606193
  9628.921  9628.900  0.500  0.710516  103.412  50.8156  9.676941
  9643.938  9643.920  0.500  0.704884  103.017  50.9075  9.762429
  9659.121  9659.100  0.500  0.699764  102.619  50.9711  9.853033
  9674.474  9674.460  0.500  0.694957  102.474  51.1442  9.967926
  9690.018  9689.990  0.500  0.690101  102.064  51.1878  10.0632
  9705.712  9705.690  0.500  0.685266  101.64  51.2222  10.1544
  9721.588  9721.560  0.500  0.680010  101.263  51.3012  10.255
  9737.632  9737.610  0.500  0.674558  100.845  51.3685  10.348
  9753.845  9753.820  0.500  0.669085  100.427  51.4362  10.4323
  9770.229  9770.210  0.500  0.663616  99.9153  51.455  10.5101
  9786.806  9786.770  0.500  0.658237  99.578  51.5579  10.6129
  9803.574  9803.500  0.500  0.652913  98.9989  51.5316  10.6892
  9820.471  9820.400  0.500  0.647615  98.1437  51.3579  10.7388
  9831.787  9831.760  0.500  0.644243  98.4319  51.6827  10.869

File: Cu-Dioptase.xdi
# XDI/1.0 BlueSky/1.10.0 BMM/2023-1.0-py310-tiled
# Beamline.name: BMM (06BM) -- Beamline for Materials Measurement (NIST)
# Beamline.xray_source: NSLS-II three-pole wiggler
# Beamline.collimation: paraboloid mirror, 5 nm Rh on 30 nm Pt
# Beamline.focusing: not in use
# Beamline.harmonic_rejection: flat mirror, Pt stripe, pitch = 7.0 mrad relative to beam
# Beamline.software: Bluesky 1.10.0, Ophyd 1.7.0, DataBroker 2.0.0b13, Python 3.10.8, 2023-1.0-py310-tiled
# Detector.I0: 10 cm N2
# Detector.I1: 25 cm N2
# Detector.I2: 25 cm N2
# Element.symbol: Cu
# Element.edge: K
# Element.reference: Cu
# Element.reference_material: Cu foil
# Facility.name: NSLS-II
# Facility.energy: 3.0
# Facility.current: 400.0
# Facility.mode: top-off
# Facility.GUP: 123456
# Facility.SAF: 301027
# Facility.cycle: 2023-2
# Mono.name: Si(111)
# Mono.d_spacing: 3.13519
# Mono.encoder_resolution: 0.0000050 deg/ct
# Mono.angle_offset: 16.0754 deg
# Mono.scan_mode: pseudo channel cut
# Mono.scan_type: step
# Mono.direction: forward in energy
# Sample.name: CuSi2(OH)2
# Sample.prep: powder in PEG pellet
# Sample.x: 116.329 mm
# Sample.y: 114.126 mm
# Sample.SDD_position: 205.000 mm
# Scan.experimenters: Bruce Ravel
# Scan.edge_energy: 8978.9
# Scan.start_time: 2023-05-06T12:53:15
# Scan.end_time: 2023-05-06T13:02:22
# Scan.transient_id: 74803
# Scan.uid: 6dfe6bec-947c-4b21-964b-1286035686e8
# Scan.plot_hint: ln(I0/It)  --  ln($5/$6)
# Column.1: energy eV
# Column.2: requested_energy eV
# Column.3: measurement_time seconds
# Column.4: xmu
# Column.5: I0 nA
# Column.6: It nA
# Column.7: Ir nA
# ///////////
# sample courtesy Martin Stennett, University of Sheffield
# -----------
# energy  requested_energy  measurement_time  xmu  I0  It  Ir
  8778.910  8778.900  0.500  0.653249  122.79  63.8941  33.1228
  8808.933  8808.900  0.500  0.640122  122.144  64.3976  33.6031
  8838.913  8838.900  0.500  0.626902  121.53  64.9269  34.0963
  8868.934  8868.900  0.500  0.614346  120.902  65.4073  34.5622
  8898.916  8898.900  0.500  0.601691  120.265  65.8915  35.0254
  8928.908  8928.900  0.500  0.589781  119.642  66.3354  35.437
  8950.899  8950.900  0.500  0.582224  119.192  66.5869  35.6299
  8956.894  8956.900  0.500  0.580673  119.112  66.6456  35.64
  8962.896  8962.900  0.500  0.579816  118.981  66.6294  35.5689
  8968.886  8968.900  0.500  0.579956  118.845  66.5439  35.355
  8969.766  8969.800  0.500  0.579763  118.805  66.5346  35.3071
  8970.680  8970.700  0.500  0.580041  118.785  66.5046  35.2419
  8971.574  8971.600  0.500  0.580262  118.76  66.4763  35.1618
  8972.489  8972.500  0.500  0.580758  118.727  66.4246  35.0579
  8973.380  8973.400  0.500  0.581178  118.697  66.3801  34.9432
  8974.278  8974.300  0.500  0.581879  118.672  66.3195  34.7935
  8975.183  8975.200  0.500  0.582923  118.641  66.233  34.588
  8976.078  8976.100  0.500  0.584006  118.607  66.1422  34.3195
  8976.990  8977.000  0.500  0.585479  118.569  66.0238  33.9457
  8977.892  8977.900  0.500  0.589191  118.547  65.7672  33.3211
  8978.791  8978.800  0.500  0.596055  118.783  65.4472  32.2364
  8979.693  8979.700  0.500  0.597748  118.861  65.3795  30.119
  8980.593  8980.600  0.500  0.594759  118.816  65.5501  25.648
  8981.499  8981.500  0.500  0.595580  118.556  65.3529  20.285
  8982.402  8982.400  0.500  0.599709  118.494  65.0501  17.9004
  8983.295  8983.300  0.500  0.606710  118.683  64.6991  17.5247
  8984.188  8984.200  0.500  0.617151  118.661  64.0151  17.8116
  8985.102  8985.100  0.500  0.633864  118.637  62.9415  17.6953
  8986.005  8986.000  0.500  0.666367  118.616  60.9175  16.4955
  8986.899  8986.900  0.500  0.730696  118.586  57.1079  14.6649
  8987.793  8987.800  0.500  0.842358  118.557  51.0618  12.5213
  8988.700  8988.700  0.500  0.996895  118.528  43.7398  10.1546
  8989.605  8989.600  0.500  1.116947  118.491  38.7794  8.352427
  8990.503  8990.500  0.500  1.173776  118.449  36.6242  7.188207
  8991.397  8991.400  0.500  1.221540  118.393  34.8994  6.155565
  8992.306  8992.300  0.500  1.296442  118.279  32.3498  5.071171
  8993.204  8993.200  0.500  1.398841  117.308  28.9612  4.070425
  8994.106  8994.100  0.500  1.529186  116.251  25.193  3.248587
  8994.994  8995.000  0.500  1.667010  118.031  22.2856  2.740755
  8995.893  8995.900  0.500  1.770569  118.37  20.1508  2.481350
  8996.806  8996.800  0.500  1.824405  118.334  19.0889  2.437600
  8997.698  8997.700  0.500  1.826652  118.296  19.0399  2.539818
  8998.601  8998.600  0.500  1.782234  118.252  19.8972  2.760413
  8999.490  8999.500  0.500  1.718148  118.201  21.205  3.017230
  9000.404  9000.400  0.500  1.673894  118.121  22.1494  3.163105
  9001.304  9001.300  0.500  1.661404  118.004  22.4057  3.132540
  9002.201  9002.200  0.500  1.656667  117.36  22.3892  2.993125
  9003.097  9003.100  0.500  1.630236  115.761  22.6756  2.865996
  9003.886  9003.900  0.500  1.584145  117.375  24.0763  2.925552
  9006.924  9006.910  0.500  1.415048  118.055  28.6771  3.743067
  9010.121  9010.100  0.500  1.436507  116.445  27.6856  4.001552
  9013.482  9013.460  0.500  1.437377  117.982  28.0267  4.258060
  9017.006  9016.980  0.500  1.426258  117.838  28.3053  4.163313
  9020.708  9020.680  0.500  1.365346  115.726  29.544  4.005263
  9024.571  9024.550  0.500  1.309627  117.737  31.7796  3.965478
  9028.620  9028.600  0.500  1.290010  117.644  32.3836  3.973692
  9032.835  9032.810  0.500  1.313972  117.52  31.5837  4.270045
  9037.138  9037.190  0.500  1.360867  117.364  30.0967  4.314908
  9041.754  9041.750  0.500  1.416203  116.311  28.2209  3.992652
  9046.461  9046.480  0.500  1.465265  117.375  27.1156  3.814513
  9051.370  9051.380  0.500  1.487083  117.276  26.5081  3.658310
  9056.450  9056.450  0.500  1.478039  117.158  26.722  3.652644
  9061.681  9061.690  0.500  1.452536  116.976  27.3696  3.606168
  9067.110  9067.110  0.500  1.424392  116.892  28.1307  3.596270
  9072.690  9072.690  0.500  1.408860  116.781  28.5439  3.502561
  9078.459  9078.450  0.500  1.401343  116.645  28.7256  3.639123
  9084.371  9084.380  0.500  1.384411  116.479  29.1748  3.982765
  9090.482  9090.480  0.500  1.365120  116.366  29.7139  4.221005
  9096.748  9096.750  0.500  1.360663  116.234  29.8129  4.468925
  9103.184  9103.190  0.500  1.365785  115.196  29.3956  4.445544
  9109.818  9109.800  0.500  1.365952  115.94  29.5807  4.215620
  9116.595  9116.590  0.500  1.365772  115.804  29.5512  4.101490
  9123.561  9123.550  0.500  1.371940  115.646  29.3296  4.022948
  9130.668  9130.670  0.500  1.378959  115.489  29.0849  3.644108
  9137.962  9137.970  0.500  1.384089  115.286  28.8851  3.622286
  9145.449  9145.450  0.500  1.380675  115.008  28.914  3.855498
  9153.107  9153.090  0.500  1.373489  114.933  29.1035  4.321629
  9160.915  9160.900  0.500  1.362387  114.917  29.4244  4.711855
  9168.904  9168.890  0.500  1.345416  112.972  29.4215  4.437837
  9177.060  9177.050  0.500  1.330341  114.528  30.2797  4.313640
  9185.390  9185.370  0.500  1.322577  114.467  30.4994  4.383709
  9193.885  9193.870  0.500  1.321267  114.176  30.4619  4.420673
  9202.565  9202.550  0.500  1.319925  113.916  30.4332  4.408302
  9211.403  9211.390  0.500  1.314666  113.699  30.5355  4.218660
  9220.417  9220.400  0.500  1.309488  113.491  30.6378  4.302032
  9229.596  9229.590  0.500  1.306503  113.265  30.6682  4.577211
  9238.970  9238.950  0.500  1.301326  113.044  30.7673  4.832857
  9248.482  9248.470  0.500  1.294846  112.829  30.9084  4.846693
  9258.198  9258.170  0.500  1.288927  112.598  31.0283  4.853896
  9268.054  9268.050  0.500  1.283416  112.354  31.1319  4.819044
  9278.117  9278.090  0.500  1.276995  112.135  31.2716  4.786470
  9288.310  9288.300  0.500  1.268190  111.842  31.4657  4.794299
  9298.709  9298.690  0.500  1.257067  110.053  31.3086  4.760348
  9309.274  9309.250  0.500  1.247934  111.8  32.0975  4.985154
  9319.998  9319.980  0.500  1.240234  111.5  32.2587  5.148823
  9330.902  9330.880  0.500  1.233238  111.256  32.414  5.221739
  9341.971  9341.950  0.500  1.228113  110.964  32.4953  5.343463
  9353.225  9353.190  0.500  1.223182  110.689  32.575  5.384100
  9364.633  9364.610  0.500  1.218244  110.414  32.6549  5.393827
  9376.212  9376.190  0.500  1.211547  110.123  32.7875  5.405279
  9387.962  9387.950  0.500  1.203910  109.844  32.9553  5.430097
  9399.898  9399.880  0.500  1.195659  109.559  33.1421  5.479258
  9411.999  9411.980  0.500  1.187332  109.259  33.3277  5.589064
  9424.278  9424.250  0.500  1.179294  108.954  33.5028  5.716480
  9436.712  9436.690  0.500  1.171810  108.125  33.4977  5.753437
  9449.331  9449.310  0.500  1.163909  108.328  33.8269  5.870660
  9462.111  9462.090  0.500  1.156400  108.005  33.9803  5.961921
  9475.074  9475.050  0.500  1.148507  107.684  34.1476  6.035981
  9488.206  9488.180  0.500  1.141387  107.357  34.2873  6.080439
  9501.503  9501.480  0.500  1.133828  107.008  34.435  6.111822
  9514.968  9514.950  0.500  1.126162  106.67  34.5906  6.162588
  9528.616  9528.600  0.500  1.119468  106.318  34.7078  6.263878
  9542.439  9542.410  0.500  1.112311  105.969  34.8426  6.359636
  9556.425  9556.400  0.500  1.105100  105.599  34.972  6.436547
  9570.579  9570.560  0.500  1.097106  105.228  35.1287  6.519921
  9584.899  9584.890  0.500  1.088984  104.834  35.2828  6.606736
  9599.407  9599.390  0.500  1.080655  104.46  35.4509  6.687717
  9614.083  9614.060  0.500  1.072082  104.086  35.6281  6.761041
  9628.925  9628.900  0.500  1.063986  103.69  35.781  6.828244
  9643.938  9643.920  0.500  1.056491  103.284  35.9093  6.900521
  9659.113  9659.100  0.500  1.049084  102.879  36.0343  6.981589
  9674.486  9674.460  0.500  1.042159  102.452  36.1342  7.057611
  9690.006  9689.990  0.500  1.034275  102.047  36.2762  7.148506
  9705.712  9705.690  0.500  1.026434  101.61  36.4051  7.233136
  9721.580  9721.560  0.500  1.018470  101.236  36.5612  7.323205
  9737.632  9737.610  0.500  1.010288  100.803  36.7038  7.409662
  9753.845  9753.820  0.500  1.002469  100.371  36.8333  7.486434
  9770.229  9770.210  0.500  0.994290  99.8593  36.9466  7.562946
  9786.781  9786.770  0.500  0.986296  99.5246  37.1183  7.657655
  9803.532  9803.500  0.500  0.978203  98.9022  37.1858  7.730176
  9820.429  9820.400  0.500  0.970133  98.0687  37.1712  7.789803
  9831.791  9831.760  0.500  0.964580  98.3175  37.473  7.897068