Folder: webxdiviewer/xdidata/Cu (part 3)

File: Cu-K-CopperFoil.xdi
# XDI/1.0 BlueSky/1.10.0 BMM/2023-1.0-py310-tiled
# Beamline.name: BMM (06BM) -- Beamline for Materials Measurement (NIST)
# Beamline.xray_source: NSLS-II three-pole wiggler
# Beamline.collimation: paraboloid mirror, 5 nm Rh on 30 nm Pt
# Beamline.focusing: not in use
# Beamline.harmonic_rejection: flat mirror, Pt stripe, pitch = 7.0 mrad relative to beam
# Beamline.software: Bluesky 1.10.0, Ophyd 1.7.0, DataBroker 2.0.0b13, Python 3.10.8, 2023-1.0-py310-tiled
# Detector.I0: 10 cm N2
# Detector.I1: 25 cm N2
# Detector.I2: 25 cm N2
# Element.symbol: Cu
# Element.edge: K
# Element.reference: Cu
# Element.reference_material: Cu foil
# Facility.name: NSLS-II
# Facility.energy: 3.0
# Facility.current: 400.2
# Facility.mode: top-off
# Facility.GUP: 301027
# Facility.SAF: 310583
# Facility.cycle: 2023-2
# Mono.name: Si(111)
# Mono.d_spacing: 3.13519
# Mono.encoder_resolution: 0.0000050 deg/ct
# Mono.angle_offset: 16.0754 deg
# Mono.scan_mode: pseudo channel cut
# Mono.scan_type: step
# Mono.direction: forward in energy
# Sample.name: Cu foil
# Sample.prep: reference foil
# Sample.x: 109.138 mm
# Sample.y: 153.150 mm
# Sample.SDD_position: 205.000 mm
# Scan.experimenters: Bruce Ravel
# Scan.edge_energy: 8978.9
# Scan.start_time: 2023-05-28T16:00:18
# Scan.end_time: 2023-05-28T16:08:28
# Scan.transient_id: 78819
# Scan.uid: 7a9331ae-bb98-4301-bb17-874292cebbc0
# Scan.plot_hint: ln(It/Ir)  --  ln($6/$7)
# Column.1: energy eV
# Column.2: requested_energy eV
# Column.3: measurement_time seconds
# Column.4: xmu
# Column.5: I0 nA
# Column.6: It nA
# Column.7: Ir nA
# ///////////
# standard reference foil
# -----------
# energy  requested_energy  measurement_time  xmu  I0  It  Ir
  8778.913  8778.900  0.500  0.809505  123.421  168.124  74.8284
  8808.907  8808.900  0.500  0.801299  122.823  167.971  75.3764
  8838.917  8838.900  0.500  0.793410  122.282  167.85  75.9188
  8868.907  8868.900  0.500  0.785610  121.702  167.635  76.415
  8898.964  8898.900  0.500  0.778149  121.121  167.45  76.9024
  8928.905  8928.900  0.500  0.771761  120.588  167.298  77.3247
  8950.886  8950.900  0.500  0.768956  120.204  167.161  77.4784
  8956.883  8956.900  0.500  0.769142  120.063  167.104  77.4379
  8962.879  8962.900  0.500  0.770314  119.953  167.08  77.3358
  8968.883  8968.900  0.500  0.774115  119.826  167.013  77.0116
  8969.773  8969.800  0.500  0.775138  119.801  166.966  76.9111
  8970.670  8970.700  0.500  0.776277  119.762  166.963  76.8224
  8971.571  8971.600  0.500  0.777777  119.738  166.942  76.6975
  8972.472  8972.500  0.500  0.779537  119.712  166.893  76.5402
  8973.387  8973.400  0.500  0.781722  119.686  166.895  76.374
  8974.281  8974.300  0.500  0.784417  119.671  166.848  76.147
  8975.197  8975.200  0.500  0.787939  119.649  166.85  75.8802
  8976.088  8976.100  0.500  0.792655  119.622  166.833  75.5153
  8976.990  8977.000  0.500  0.798883  119.597  166.799  75.0315
  8977.889  8977.900  0.500  0.808217  119.564  166.791  74.3308
  8978.791  8978.800  0.500  0.823760  119.884  167.252  73.3865
  8979.697  8979.700  0.500  0.853509  119.91  167.307  71.259
  8980.603  8980.600  0.500  0.923534  119.882  167.293  66.4341
  8981.495  8981.500  0.500  1.095086  119.841  167.263  55.9513
  8982.385  8982.400  0.500  1.325566  119.569  166.916  44.3418
  8983.291  8983.300  0.500  1.438604  119.543  166.894  39.597
  8984.198  8984.200  0.500  1.451374  119.717  167.177  39.1608
  8985.105  8985.100  0.500  1.422998  119.702  167.16  40.284
  8985.995  8986.000  0.500  1.415594  119.675  167.121  40.5739
  8986.889  8986.900  0.500  1.454329  119.647  167.089  39.0248
  8987.803  8987.800  0.500  1.508476  119.624  167.09  36.9682
  8988.697  8988.700  0.500  1.556124  119.597  167.06  35.2416
  8989.608  8989.600  0.500  1.613543  119.557  167.044  33.2719
  8990.492  8990.500  0.500  1.686248  119.526  167.017  30.9337
  8991.397  8991.400  0.500  1.778998  119.484  166.987  28.1886
  8992.292  8992.300  0.500  1.890575  119.429  166.89  25.1979
  8993.211  8993.200  0.500  2.012745  119.29  166.739  22.2799
  8994.092  8994.100  0.500  2.117238  118.234  165.263  19.8917
  8994.994  8995.000  0.500  2.202551  117.311  164.003  18.1258
  8995.893  8995.900  0.500  2.247457  119.121  166.535  17.5974
  8996.806  8996.800  0.500  2.241892  119.386  166.933  17.7378
  8997.698  8997.700  0.500  2.207161  119.362  166.922  18.3635
  8998.594  8998.600  0.500  2.163721  119.319  166.891  19.1752
  8999.501  8999.500  0.500  2.123862  119.277  166.868  19.9522
  9000.394  9000.400  0.500  2.099180  119.223  166.79  20.4413
  9001.304  9001.300  0.500  2.095839  119.159  166.704  20.4991
  9002.201  9002.200  0.500  2.118015  119.044  166.53  20.0286
  9003.087  9003.100  0.500  2.163836  118.312  165.535  19.0172
  9003.886  9003.900  0.500  2.215148  116.778  163.411  17.8343
  9006.882  9006.910  0.500  2.230166  119.126  166.751  17.9275
  9010.111  9010.100  0.500  2.106053  118.815  166.369  20.25
  9013.461  9013.460  0.500  2.033904  119.037  166.758  21.8159
  9016.982  9016.980  0.500  2.052555  118.921  166.652  21.3992
  9020.687  9020.680  0.500  2.126162  117.458  164.649  19.6417
  9024.547  9024.550  0.500  2.212812  118.824  166.663  18.2317
  9028.610  9028.600  0.500  2.257514  118.74  166.598  17.4278
  9032.814  9032.810  0.500  2.171199  118.65  166.547  18.9931
  9037.180  9037.190  0.500  2.095361  118.554  166.492  20.4829
  9041.761  9041.750  0.500  2.097118  117.408  165.007  20.2644
  9046.475  9046.480  0.500  2.111235  118.308  166.359  20.1441
  9051.373  9051.380  0.500  2.121431  118.21  166.291  19.9317
  9056.443  9056.450  0.500  2.136303  118.108  166.258  19.6335
  9061.692  9061.690  0.500  2.167165  117.989  166.179  19.0278
  9067.120  9067.110  0.500  2.199308  117.853  166.067  18.4135
  9072.694  9072.690  0.500  2.240561  117.768  166.043  17.6667
  9078.445  9078.450  0.500  2.224009  117.643  165.988  17.9557
  9084.392  9084.380  0.500  2.146671  117.458  165.843  19.3825
  9090.486  9090.480  0.500  2.099855  117.376  165.844  20.3116
  9096.759  9096.750  0.500  2.051765  117.262  165.791  21.3054
  9103.212  9103.190  0.500  2.028542  117.384  166.076  21.8435
  9109.818  9109.800  0.500  2.085576  117.342  166.131  20.6394
  9116.609  9116.590  0.500  2.119081  117.213  166.083  19.9535
  9123.561  9123.550  0.500  2.124644  117.064  165.986  19.8313
  9130.675  9130.670  0.500  2.212491  116.895  165.852  18.1488
  9137.970  9137.970  0.500  2.225143  116.704  165.725  17.9069
  9145.460  9145.450  0.500  2.168823  113.736  161.653  18.4789
  9153.110  9153.090  0.500  2.063005  116.386  165.561  21.0381
  9160.923  9160.900  0.500  1.975314  116.358  165.658  22.9797
  9168.897  9168.890  0.500  2.022408  112.43  160.174  21.1968
  9177.071  9177.050  0.500  2.088272  115.98  165.35  20.4871
  9185.390  9185.370  0.500  2.082597  115.919  165.427  20.6133
  9193.882  9193.870  0.500  2.072844  115.631  165.16  20.7816
  9202.561  9202.550  0.500  2.068156  115.374  164.931  20.8503
  9211.403  9211.390  0.500  2.118760  115.158  164.775  19.8027
  9220.417  9220.400  0.500  2.106814  114.949  164.633  20.0234
  9229.603  9229.590  0.500  2.048357  114.726  164.49  21.2105
  9238.977  9238.950  0.500  1.992167  114.515  164.318  22.4129
  9248.493  9248.470  0.500  1.990352  114.309  164.188  22.4358
  9258.187  9258.170  0.500  1.992484  114.074  164  22.3625
  9268.080  9268.050  0.500  2.001864  113.853  163.834  22.1312
  9278.113  9278.090  0.500  2.013395  113.654  163.713  21.8613
  9288.314  9288.300  0.500  2.017879  113.399  163.54  21.7405
  9298.717  9298.690  0.500  2.020035  112.933  163.012  21.6236
  9309.263  9309.250  0.500  2.000807  113.027  163.311  22.0839
  9319.995  9319.980  0.500  1.972035  112.725  163.041  22.691
  9330.902  9330.880  0.500  1.961184  112.507  162.915  22.9208
  9341.990  9341.950  0.500  1.941725  112.21  162.688  23.3386
  9353.192  9353.190  0.500  1.933653  111.945  162.473  23.4967
  9364.625  9364.610  0.500  1.933658  111.675  162.23  23.4614
  9376.208  9376.190  0.500  1.935277  111.408  162.006  23.3911
  9387.958  9387.950  0.500  1.935710  111.121  161.775  23.3476
  9399.898  9399.880  0.500  1.932174  110.846  161.569  23.4005
  9412.003  9411.980  0.500  1.918398  110.569  161.367  23.6954
  9424.266  9424.250  0.500  1.900023  110.282  161.125  24.0986
  9436.712  9436.690  0.500  1.892284  109.67  160.425  24.1804
  9449.327  9449.310  0.500  1.882053  109.685  160.637  24.4614
  9462.119  9462.090  0.500  1.869868  109.358  160.343  24.7159
  9475.070  9475.050  0.500  1.861871  109.054  160.072  24.8722
  9488.198  9488.180  0.500  1.857700  108.733  159.794  24.9328
  9501.503  9501.480  0.500  1.856356  108.397  159.502  24.9207
  9514.975  9514.950  0.500  1.852455  108.069  159.191  24.9694
  9528.620  9528.600  0.500  1.839417  107.741  158.904  25.2515
  9542.423  9542.410  0.500  1.827240  107.418  158.622  25.5154
  9556.413  9556.400  0.500  1.818096  107.085  158.314  25.6998
  9570.575  9570.560  0.500  1.809218  106.735  158.025  25.8816
  9584.907  9584.890  0.500  1.799973  106.411  157.733  26.0738
  9599.403  9599.390  0.500  1.791653  106.058  157.413  26.2383
  9614.075  9614.060  0.500  1.785032  105.703  157.081  26.3569
  9628.933  9628.900  0.500  1.778780  105.348  156.761  26.4681
  9643.930  9643.920  0.500  1.771494  104.967  156.39  26.5986
  9659.129  9659.100  0.500  1.762825  104.897  156.482  26.846
  9674.470  9674.460  0.500  1.754206  104.583  156.198  27.0293
  9690.018  9689.990  0.500  1.744857  104.229  155.882  27.2279
  9705.712  9705.690  0.500  1.735922  103.813  155.464  27.3986
  9721.580  9721.560  0.500  1.727032  103.481  155.173  27.5914
  9737.632  9737.610  0.500  1.718780  103.107  154.808  27.7548
  9753.853  9753.820  0.500  1.711330  102.661  154.356  27.8805
  9770.233  9770.210  0.500  1.703561  102.222  153.891  28.0135
  9786.790  9786.770  0.500  1.695323  101.883  153.595  28.1907
  9803.536  9803.500  0.500  1.686999  99.9027  150.81  27.911
  9820.438  9820.400  0.500  1.678560  100.908  152.53  28.4686
  9831.825  9831.760  0.500  1.672454  100.738  152.396  28.6177