Folder: webxdiviewer/xdidata/Cu

Note: xdidata/README.md
# bmm-standards
A pretty webpage for BMM's collection of common XAFS materials

[BMM's common materials collection](./BMM-standards.html)

Plotting of the data will happen soon.

Periodic table adapted from [some guy named Daniel](https://codepen.io/gooseofmusic/pen/PjKdNQ)

[This](https://www.coderstool.com/scss-to-css) is a helpful tool for
dealing with Sassy CSS.

File: Cu-Cu2O.xdi
# XDI/1.0 BlueSky/1.10.0 BMM/2023-1.0-py310-tiled
# Beamline.name: BMM (06BM) -- Beamline for Materials Measurement (NIST)
# Beamline.xray_source: NSLS-II three-pole wiggler
# Beamline.collimation: paraboloid mirror, 5 nm Rh on 30 nm Pt
# Beamline.focusing: not in use
# Beamline.harmonic_rejection: flat mirror, Pt stripe, pitch = 7.0 mrad relative to beam
# Beamline.software: Bluesky 1.10.0, Ophyd 1.7.0, DataBroker 2.0.0b13, Python 3.10.8, 2023-1.0-py310-tiled
# Detector.I0: 10 cm N2
# Detector.I1: 25 cm N2
# Detector.I2: 25 cm N2
# Element.symbol: Cu
# Element.edge: K
# Element.reference: Cu
# Element.reference_material: Cu foil
# Facility.name: NSLS-II
# Facility.energy: 3.0
# Facility.current: 399.8
# Facility.mode: top-off
# Facility.GUP: 123456
# Facility.SAF: 301027
# Facility.cycle: 2023-2
# Mono.name: Si(111)
# Mono.d_spacing: 3.13519
# Mono.encoder_resolution: 0.0000050 deg/ct
# Mono.angle_offset: 16.0754 deg
# Mono.scan_mode: pseudo channel cut
# Mono.scan_type: step
# Mono.direction: forward in energy
# Sample.name: Cu2O
# Sample.prep: powder in PEG pellet
# Sample.x: 116.329 mm
# Sample.y: 114.126 mm
# Sample.SDD_position: 205.000 mm
# Scan.experimenters: Bruce Ravel
# Scan.edge_energy: 8978.9
# Scan.start_time: 2023-05-07T09:17:46
# Scan.end_time: 2023-05-07T09:25:40
# Scan.transient_id: 74867
# Scan.uid: 56d5fda3-075e-4e9c-92d8-bff39cbc9bf4
# Scan.plot_hint: ln(I0/It)  --  ln($5/$6)
# Column.1: energy eV
# Column.2: requested_energy eV
# Column.3: measurement_time seconds
# Column.4: xmu
# Column.5: I0 nA
# Column.6: It nA
# Column.7: Ir nA
# ///////////
# sample courtesy Martin Stennett, University of Sheffield
# -----------
# energy  requested_energy  measurement_time  xmu  I0  It  Ir
  8778.913  8778.900  0.500  0.336181  121.935  87.1216  45.2304
  8808.984  8808.900  0.500  0.326137  121.371  87.5943  45.7779
  8838.886  8838.900  0.500  0.316093  120.781  88.048  46.308
  8868.887  8868.900  0.500  0.306520  120.197  88.4651  46.8195
  8898.892  8898.900  0.500  0.297024  119.592  88.8603  47.3077
  8928.905  8928.900  0.500  0.287940  119.007  89.232  47.7406
  8950.910  8950.900  0.500  0.282365  118.574  89.4044  47.9062
  8956.901  8956.900  0.500  0.281447  118.48  89.4156  47.8866
  8962.896  8962.900  0.500  0.280978  118.36  89.367  47.7775
  8968.893  8968.900  0.500  0.282030  118.494  89.3744  47.5647
  8969.776  8969.800  0.500  0.282704  118.47  89.296  47.4665
  8970.680  8970.700  0.500  0.282859  118.434  89.2549  47.3799
  8971.571  8971.600  0.500  0.283617  118.416  89.174  47.258
  8972.482  8972.500  0.500  0.284269  118.386  89.0927  47.1155
  8973.387  8973.400  0.500  0.285280  118.349  88.9753  46.9328
  8974.295  8974.300  0.500  0.286619  118.329  88.8409  46.7062
  8975.186  8975.200  0.500  0.288406  118.296  88.6576  46.4073
  8976.098  8976.100  0.500  0.290655  118.277  88.4445  46.0151
  8976.983  8977.000  0.500  0.293391  118.248  88.1811  45.4966
  8977.889  8977.900  0.500  0.297564  118.209  87.7846  44.6978
  8978.791  8978.800  0.500  0.304482  118.183  87.1606  43.2937
  8979.697  8979.700  0.500  0.315916  118.162  86.1544  40.4362
  8980.603  8980.600  0.500  0.338151  118.138  84.2425  34.2831
  8981.502  8981.500  0.500  0.392326  117.911  79.6473  25.7826
  8982.398  8982.400  0.500  0.519494  117.79  70.0639  19.5953
  8983.291  8983.300  0.500  0.655084  117.979  61.278  16.5913
  8984.195  8984.200  0.500  0.649629  117.968  61.6075  17.0872
  8985.102  8985.100  0.500  0.592751  117.952  65.2047  18.3924
  8986.005  8986.000  0.500  0.575854  117.891  66.2813  18.1425
  8986.902  8986.900  0.500  0.596570  117.851  64.9002  16.8318
  8987.796  8987.800  0.500  0.626077  117.79  62.9805  15.5812
  8988.690  8988.700  0.500  0.654379  117.731  61.1922  14.3746
  8989.595  8989.600  0.500  0.686112  117.683  59.2571  12.9743
  8990.503  8990.500  0.500  0.718430  117.625  57.344  11.4816
  8991.404  8991.400  0.500  0.749864  117.554  55.536  10.0048
  8992.295  8992.300  0.500  0.788579  117.448  53.3788  8.557777
  8993.197  8993.200  0.500  0.836340  116.896  50.6503  7.264064
  8994.102  8994.100  0.500  0.885046  115.136  47.5161  6.216996
  8994.998  8995.000  0.500  0.917009  116.867  46.7133  5.785848
  8995.900  8995.900  0.500  0.932466  117.406  46.2088  5.687748
  8996.796  8996.800  0.500  0.942450  117.369  45.7355  5.805282
  8997.698  8997.700  0.500  0.946899  117.329  45.5169  6.032902
  8998.601  8998.600  0.500  0.937864  117.282  45.9115  6.336596
  8999.511  8999.500  0.500  0.915375  117.219  46.9306  6.667612
  9000.397  9000.400  0.500  0.892069  117.148  48.0081  6.878845
  9001.290  9001.300  0.500  0.872440  117.048  48.918  6.897312
  9002.211  9002.200  0.500  0.854877  116.63  49.607  6.709533
  9003.104  9003.100  0.500  0.841318  114.766  49.4806  6.327334
  9003.900  9003.900  0.500  0.833949  116.044  50.4016  6.170903
  9006.924  9006.910  0.500  0.840264  117.094  50.5372  6.549499
  9010.111  9010.100  0.500  0.861519  115.923  48.9796  7.059144
  9013.471  9013.460  0.500  0.874599  117.044  48.8108  7.431815
  9016.999  9016.980  0.500  0.867392  116.917  49.1104  7.260508
  9020.694  9020.680  0.500  0.833645  114.585  49.7829  6.789739
  9024.564  9024.550  0.500  0.812053  116.799  51.8526  6.502502
  9028.617  9028.600  0.500  0.801414  116.808  52.4111  6.425685
  9032.824  9032.810  0.500  0.799534  117.088  52.6354  7.096847
  9037.208  9037.190  0.500  0.813546  117.009  51.868  7.444576
  9041.754  9041.750  0.500  0.830297  115.618  50.4001  7.153926
  9046.489  9046.480  0.500  0.850459  116.76  49.8822  7.027655
  9051.401  9051.380  0.500  0.849564  116.675  49.8902  6.904263
  9056.471  9056.450  0.500  0.839780  116.573  50.337  6.896067
  9061.695  9061.690  0.500  0.837026  116.408  50.4041  6.660674
  9067.120  9067.110  0.500  0.833751  116.341  50.5403  6.479489
  9072.708  9072.690  0.500  0.838406  116.241  50.2625  6.184317
  9078.463  9078.450  0.500  0.842499  116.103  49.9978  6.331535
  9084.395  9084.380  0.500  0.842147  115.947  49.9482  6.818855
  9090.489  9090.480  0.500  0.833176  115.836  50.35  7.161079
  9096.759  9096.750  0.500  0.815446  115.714  51.1969  7.674107
  9103.209  9103.190  0.500  0.801395  114.819  51.5196  7.812865
  9109.811  9109.800  0.500  0.797822  115.409  51.9697  7.430217
  9116.613  9116.590  0.500  0.804926  115.258  51.5342  7.165666
  9123.565  9123.550  0.500  0.807532  115.117  51.3373  7.064796
  9130.686  9130.670  0.500  0.806887  114.951  51.2962  6.448096
  9137.991  9137.970  0.500  0.806731  114.752  51.2157  6.426590
  9145.438  9145.450  0.500  0.808114  114.163  50.8821  6.781398
  9153.666  9153.090  0.500  0.801573  114.352  51.3007  7.645423
  9160.905  9160.900  0.500  0.794673  114.397  51.6766  8.288937
  9168.897  9168.890  0.500  0.790796  111.765  50.6835  7.676643
  9177.060  9177.050  0.500  0.788573  114.031  51.8262  7.399337
  9185.372  9185.370  0.500  0.786258  113.955  51.9117  7.472144
  9193.864  9193.870  0.500  0.782525  113.69  51.9848  7.553883
  9202.546  9202.550  0.500  0.777275  113.415  52.1319  7.573029
  9211.400  9211.390  0.500  0.770607  113.205  52.3835  7.251450
  9220.395  9220.400  0.500  0.764089  113.029  52.6442  7.399810
  9229.581  9229.590  0.500  0.759144  112.811  52.8029  7.880910
  9238.952  9238.950  0.500  0.755840  112.609  52.8829  8.314844
  9248.471  9248.470  0.500  0.753571  112.419  52.9137  8.311542
  9258.176  9258.170  0.500  0.751098  112.197  52.9401  8.296339
  9268.054  9268.050  0.500  0.747560  111.989  53.0291  8.222982
  9278.106  9278.090  0.500  0.743409  111.797  53.1585  8.150188
  9288.318  9288.300  0.500  0.738307  111.534  53.3046  8.134696
  9298.709  9298.690  0.500  0.733120  110.332  53.0044  8.070647
  9309.263  9309.250  0.500  0.728174  111.18  53.6766  8.343947
  9320.002  9319.980  0.500  0.722696  110.894  53.8325  8.602705
  9330.902  9330.880  0.500  0.717693  110.682  53.9991  8.710643
  9341.960  9341.950  0.500  0.712959  110.419  54.1264  8.908417
  9353.207  9353.190  0.500  0.708032  110.162  54.2674  8.982655
  9364.636  9364.610  0.500  0.702708  109.905  54.4296  9.005113
  9376.216  9376.190  0.500  0.697728  109.773  54.6358  9.020598
  9387.962  9387.950  0.500  0.692919  109.51  54.7676  9.036769
  9399.898  9399.880  0.500  0.688287  109.246  54.8892  9.087543
  9412.007  9411.980  0.500  0.683567  108.97  55.0095  9.236249
  9424.274  9424.250  0.500  0.679053  108.682  55.1123  9.413508
  9436.712  9436.690  0.500  0.674246  107.863  54.9607  9.453127
  9449.331  9449.310  0.500  0.669306  108.088  55.3481  9.617715
  9462.107  9462.090  0.500  0.664034  107.793  55.4886  9.749776
  9475.074  9475.050  0.500  0.658604  107.503  55.6407  9.849987
  9488.202  9488.180  0.500  0.652924  107.199  55.7994  9.908086
  9501.495  9501.480  0.500  0.647585  106.878  55.9302  9.941810
  9514.975  9514.950  0.500  0.642238  106.558  56.0619  10.0035
  9528.620  9528.600  0.500  0.636955  106.244  56.1925  10.1534
  9542.427  9542.410  0.500  0.631888  105.922  56.307  10.291
  9556.425  9556.400  0.500  0.626821  105.6  56.4206  10.3994
  9570.575  9570.560  0.500  0.621610  105.253  56.5293  10.5063
  9584.903  9584.890  0.500  0.616497  104.909  56.6332  10.6179
  9599.426  9599.390  0.500  0.611171  104.576  56.7552  10.7237
  9614.095  9614.060  0.500  0.605895  104.228  56.8654  10.8089
  9628.925  9628.900  0.500  0.600557  103.877  56.9774  10.8885
  9643.938  9643.920  0.500  0.595186  103.522  57.0885  10.9865
  9659.125  9659.100  0.500  0.589915  103.151  57.184  11.0931
  9674.486  9674.460  0.500  0.585833  102.749  57.1946  11.1868
  9690.010  9689.990  0.500  0.579494  102.377  57.3495  11.3151
  9705.716  9705.690  0.500  0.573982  101.962  57.4328  11.4253
  9721.584  9721.560  0.500  0.568693  101.603  57.5341  11.541
  9737.636  9737.610  0.500  0.563131  101.217  57.6355  11.65
  9753.841  9753.820  0.500  0.557656  100.817  57.7229  11.7487
  9770.233  9770.210  0.500  0.552225  100.32  57.7507  11.8373
  9786.786  9786.770  0.500  0.546740  99.9906  57.8779  11.9547
  9803.512  9803.500  0.500  0.541303  99.1289  57.692  12.0066
  9820.425  9820.400  0.500  0.535749  98.6395  57.7269  12.1113
  9831.770  9831.760  0.500  0.532048  98.8668  58.0744  12.2536

File: Cu-Cufoil.xdi
# XDI/1.0 BlueSky/1.10.0 BMM/2023-1.0-py310-tiled
# Beamline.name: BMM (06BM) -- Beamline for Materials Measurement (NIST)
# Beamline.xray_source: NSLS-II three-pole wiggler
# Beamline.collimation: paraboloid mirror, 5 nm Rh on 30 nm Pt
# Beamline.focusing: not in use
# Beamline.harmonic_rejection: flat mirror, Pt stripe, pitch = 7.0 mrad relative to beam
# Beamline.software: Bluesky 1.10.0, Ophyd 1.7.0, DataBroker 2.0.0b13, Python 3.10.8, 2023-1.0-py310-tiled
# Detector.I0: 10 cm N2
# Detector.I1: 25 cm N2
# Detector.I2: 25 cm N2
# Element.symbol: Cu
# Element.edge: K
# Element.reference: Cu
# Element.reference_material: Cu foil
# Facility.name: NSLS-II
# Facility.energy: 3.0
# Facility.current: 400.7
# Facility.mode: top-off
# Facility.GUP: 123456
# Facility.SAF: 301027
# Facility.cycle: 2023-2
# Mono.name: Si(111)
# Mono.d_spacing: 3.13519
# Mono.encoder_resolution: 0.0000050 deg/ct
# Mono.angle_offset: 16.0754 deg
# Mono.scan_mode: pseudo channel cut
# Mono.scan_type: step
# Mono.direction: forward in energy
# Sample.name: Cu metal
# Sample.prep: reference metal
# Sample.x: 116.329 mm
# Sample.y: 114.126 mm
# Sample.SDD_position: 205.000 mm
# Scan.experimenters: Bruce Ravel
# Scan.edge_energy: 8978.9
# Scan.start_time: 2023-05-06T12:36:03
# Scan.end_time: 2023-05-06T12:43:56
# Scan.transient_id: 74793
# Scan.uid: 6fc5776a-8f3f-4c58-8524-579e661c6461
# Scan.plot_hint: ln(It/Ir)  --  ln($6/$7)
# Column.1: energy eV
# Column.2: requested_energy eV
# Column.3: measurement_time seconds
# Column.4: xmu
# Column.5: I0 nA
# Column.6: It nA
# Column.7: Ir nA
# ///////////
# reference foil
# -----------
# energy  requested_energy  measurement_time  xmu  I0  It  Ir
  8778.946  8778.900  0.500  0.656676  121.863  143.816  74.5789
  8808.950  8808.900  0.500  0.650040  121.28  143.869  75.1033
  8838.930  8838.900  0.500  0.643662  120.698  143.866  75.5823
  8868.927  8868.900  0.500  0.637388  120.096  143.912  76.0823
  8898.909  8898.900  0.500  0.631516  120.506  145.126  77.1756
  8928.898  8928.900  0.500  0.626665  119.884  145.092  77.5328
  8950.879  8950.900  0.500  0.624991  119.43  145.051  77.6411
  8956.870  8956.900  0.500  0.625600  119.361  145.116  77.6284
  8962.876  8962.900  0.500  0.627407  119.246  145.101  77.4804
  8968.876  8968.900  0.500  0.632116  119.112  145.088  77.1094
  8969.763  8969.800  0.500  0.633299  119.091  145.089  77.0189
  8970.667  8970.700  0.500  0.634750  119.07  145.08  76.9022
  8971.574  8971.600  0.500  0.636528  119.041  145.061  76.7557
  8972.479  8972.500  0.500  0.638828  119.007  145.021  76.558
  8973.394  8973.400  0.500  0.641618  118.99  145.038  76.354
  8974.278  8974.300  0.500  0.645110  118.955  144.992  76.0634
  8975.190  8975.200  0.500  0.649869  118.934  145.005  75.7091
  8976.085  8976.100  0.500  0.656395  118.911  145.011  75.2197
  8976.990  8977.000  0.500  0.665804  118.885  144.972  74.4956
  8977.882  8977.900  0.500  0.680988  118.843  144.932  73.3525
  8978.794  8978.800  0.500  0.710910  118.824  144.982  71.2147
  8979.697  8979.700  0.500  0.783557  118.786  144.959  66.2141
  8980.606  8980.600  0.500  0.959336  118.753  144.966  55.5434
  8981.502  8981.500  0.500  1.184416  118.473  144.688  44.2638
  8982.385  8982.400  0.500  1.293835  118.441  144.684  39.6748
  8983.295  8983.300  0.500  1.304388  118.625  144.928  39.3245
  8984.191  8984.200  0.500  1.276649  118.606  144.936  40.4329
  8985.095  8985.100  0.500  1.269861  118.577  144.886  40.6944
  8986.005  8986.000  0.500  1.310811  118.557  144.875  39.0584
  8986.906  8986.900  0.500  1.364819  118.521  144.884  37.0072
  8987.800  8987.800  0.500  1.411379  118.49  144.869  35.3201
  8988.690  8988.700  0.500  1.466464  118.456  144.864  33.4259
  8989.598  8989.600  0.500  1.542271  118.423  144.851  30.9828
  8990.496  8990.500  0.500  1.637470  118.381  144.837  28.1666
  8991.404  8991.400  0.500  1.747435  118.325  144.791  25.2254
  8992.306  8992.300  0.500  1.864731  118.399  144.925  22.4543
  8993.201  8993.200  0.500  1.972140  117.266  143.565  19.9784
  8994.099  8994.100  0.500  2.054870  116.501  142.625  18.2717
  8995.001  8995.000  0.500  2.096912  118.246  144.78  17.7841
  8995.900  8995.900  0.500  2.090795  118.477  145.104  17.9332
  8996.803  8996.800  0.500  2.053891  118.44  145.066  18.6025
  8997.702  8997.700  0.500  2.010708  118.398  145.039  19.4199
  8998.608  8998.600  0.500  1.972816  118.352  144.993  20.1634
  8999.497  8999.500  0.500  1.948853  118.303  144.963  20.6482
  9000.404  9000.400  0.500  1.946532  118.211  144.86  20.6814
  9001.290  9001.300  0.500  1.969520  118.077  144.698  20.1889
  9002.201  9002.200  0.500  2.016262  117.283  143.79  19.146
  9003.104  9003.100  0.500  2.073422  115.931  142.148  17.8757
  9003.904  9003.900  0.500  2.110307  117.645  144.262  17.4847
  9006.924  9006.910  0.500  2.033073  118.143  144.934  18.9766
  9010.111  9010.100  0.500  1.931893  116.347  142.805  20.6886
  9013.478  9013.460  0.500  1.884238  118.066  144.984  22.0296
  9016.985  9016.980  0.500  1.917109  117.93  144.905  21.3056
  9020.698  9020.680  0.500  1.999688  115.944  142.557  19.299
  9024.561  9024.550  0.500  2.082366  117.82  144.969  18.0682
  9028.610  9028.600  0.500  2.096800  117.713  144.914  17.8025
  9032.817  9032.810  0.500  1.999377  117.613  144.878  19.6193
  9037.201  9037.190  0.500  1.941661  117.5  144.826  20.7775
  9041.772  9041.750  0.500  1.955788  116.25  143.394  20.2835
  9046.506  9046.480  0.500  1.960659  117.249  144.712  20.3705
  9051.387  9051.380  0.500  1.980797  117.155  144.716  19.965
  9056.457  9056.450  0.500  1.989808  117.051  144.705  19.7844
  9061.695  9061.690  0.500  2.027309  116.828  144.539  19.0342
  9067.124  9067.110  0.500  2.057327  116.793  144.624  18.4822
  9072.705  9072.690  0.500  2.098174  116.669  144.606  17.7403
  9078.459  9078.450  0.500  2.064532  116.536  144.562  18.3417
  9084.385  9084.380  0.500  1.990268  116.372  144.47  19.7431
  9090.493  9090.480  0.500  1.950964  116.247  144.46  20.5331
  9096.755  9096.750  0.500  1.897009  116.102  144.418  21.6652
  9103.194  9103.190  0.500  1.889308  114.968  143.112  21.6352
  9109.807  9109.800  0.500  1.948609  115.782  144.288  20.557
  9116.598  9116.590  0.500  1.974353  115.631  144.255  20.03
  9123.569  9123.550  0.500  1.986976  115.462  144.201  19.7713
  9130.675  9130.670  0.500  2.077662  115.277  144.114  18.0463
  9137.980  9137.970  0.500  2.075614  115.062  143.984  18.0671
  9145.474  9145.450  0.500  2.013339  114.871  143.899  19.2166
  9153.103  9153.090  0.500  1.905868  114.676  143.823  21.3855
  9160.915  9160.900  0.500  1.831286  114.663  143.972  23.0653
  9168.911  9168.890  0.500  1.892321  112.982  142.042  21.4087
  9177.081  9177.050  0.500  1.948519  114.261  143.827  20.4931
  9185.394  9185.370  0.500  1.939424  114.184  143.902  20.6912
  9193.893  9193.870  0.500  1.929775  113.899  143.722  20.8657
  9202.576  9202.550  0.500  1.932613  113.628  143.555  20.7824
  9211.407  9211.390  0.500  1.979318  113.41  143.476  19.8232
  9220.417  9220.400  0.500  1.962575  113.679  143.992  20.2304
  9229.614  9229.590  0.500  1.901285  113.454  143.86  21.4893
  9238.974  9238.950  0.500  1.850773  113.224  143.771  22.5887
  9248.493  9248.470  0.500  1.852632  113.015  143.71  22.5372
  9258.198  9258.170  0.500  1.855057  112.779  143.609  22.4668
  9268.080  9268.050  0.500  1.865829  112.53  143.465  22.2037
  9278.124  9278.090  0.500  1.876820  112.316  143.41  21.9526
  9288.333  9288.300  0.500  1.881402  112.037  143.267  21.8305
  9298.720  9298.690  0.500  1.883476  109.812  140.619  21.3825
  9309.274  9309.250  0.500  1.862141  111.624  143.142  22.2356
  9320.002  9319.980  0.500  1.834521  111.334  142.989  22.8339
  9330.902  9330.880  0.500  1.825568  111.088  142.878  23.0213
  9341.971  9341.950  0.500  1.805121  110.805  142.728  23.4723
  9353.207  9353.190  0.500  1.800004  110.526  142.585  23.569
  9364.625  9364.610  0.500  1.800549  110.276  142.459  23.5354
  9376.212  9376.190  0.500  1.802470  109.983  142.329  23.4687
  9387.962  9387.950  0.500  1.803181  109.704  142.177  23.4271
  9399.894  9399.880  0.500  1.799641  109.425  142.056  23.4901
  9411.995  9411.980  0.500  1.785395  109.132  141.871  23.7961
  9424.274  9424.250  0.500  1.768315  108.831  141.724  24.181
  9436.708  9436.690  0.500  1.761489  108.037  140.913  24.2072
  9449.323  9449.310  0.500  1.751119  108.211  141.368  24.5387
  9462.111  9462.090  0.500  1.740143  107.893  141.197  24.7795
  9475.066  9475.050  0.500  1.732785  107.589  141.037  24.9341
  9488.206  9488.180  0.500  1.729577  107.271  140.844  24.98
  9501.484  9501.480  0.500  1.728795  106.932  140.635  24.9625
  9514.972  9514.950  0.500  1.724757  106.602  140.445  25.0295
  9528.616  9528.600  0.500  1.711786  106.271  140.244  25.32
  9542.435  9542.410  0.500  1.700644  105.922  140.033  25.5652
  9556.425  9556.400  0.500  1.692219  105.571  139.812  25.7409
  9570.583  9570.560  0.500  1.683886  105.213  139.586  25.9142
  9584.915  9584.890  0.500  1.675112  104.855  139.348  26.0982
  9599.418  9599.390  0.500  1.667565  104.491  139.103  26.2497
  9614.138  9614.060  0.500  1.661550  104.123  138.853  26.3605
  9628.973  9628.900  0.500  1.656027  103.727  138.584  26.455
  9643.950  9643.920  0.500  1.649009  103.339  138.304  26.5876
  9659.121  9659.100  0.500  1.640943  102.943  138.033  26.7504
  9674.482  9674.460  0.500  1.632766  102.515  137.7  26.905
  9690.030  9689.990  0.500  1.624048  102.113  137.378  27.0771
  9705.760  9705.690  0.500  1.615865  101.687  137.067  27.2378
  9721.547  9721.560  0.500  1.607629  101.31  136.832  27.416
  9737.665  9737.610  0.500  1.599823  100.891  136.512  27.5661
  9753.800  9753.820  0.500  1.592940  100.472  136.189  27.6909
  9770.192  9770.210  0.500  1.585969  99.9558  135.745  27.7938
  9786.744  9786.770  0.500  1.578184  99.6383  135.561  27.973
  9803.462  9803.500  0.500  1.570582  99.0591  135.024  28.0748
  9820.371  9820.400  0.500  1.562456  98.52  134.549  28.2043
  9831.745  9831.760  0.500  1.556889  98.7978  135.093  28.4765