Folder: webxdiviewer/xdidata/Dy (part 4)

File: Dy-L3-DyScO3.xdi
# XDI/1.0 BlueSky/1.10.0 BMM/2023-1.0-py310-tiled
# Beamline.name: BMM (06BM) -- Beamline for Materials Measurement (NIST)
# Beamline.xray_source: NSLS-II three-pole wiggler
# Beamline.collimation: paraboloid mirror, 5 nm Rh on 30 nm Pt
# Beamline.focusing: not in use
# Beamline.harmonic_rejection: flat mirror, Si stripe, pitch = 7.0 mrad relative to beam
# Beamline.software: Bluesky 1.10.0, Ophyd 1.7.0, DataBroker 2.0.0b13, Python 3.10.8, 2023-1.0-py310-tiled
# Detector.I0: 10 cm N2
# Detector.I1: 25 cm N2
# Detector.I2: 25 cm N2
# Element.symbol: Dy
# Element.edge: L3
# Element.reference: Dy
# Element.reference_material: Dy2O3
# Facility.name: NSLS-II
# Facility.energy: 3.0
# Facility.current: 399.0
# Facility.mode: top-off
# Facility.GUP: 123456
# Facility.SAF: 301027
# Facility.cycle: 2023-2
# Mono.name: Si(111)
# Mono.d_spacing: 3.13519
# Mono.encoder_resolution: 0.0000050 deg/ct
# Mono.angle_offset: 16.0754 deg
# Mono.scan_mode: pseudo channel cut
# Mono.scan_type: step
# Mono.direction: forward in energy
# Sample.name: DyScO3
# Sample.prep: powder on tape
# Sample.x: 149.848 mm
# Sample.y: 114.690 mm
# Sample.SDD_position: 205.000 mm
# Scan.experimenters: Bruce Ravel
# Scan.edge_energy: 7790.1
# Scan.start_time: 2023-05-08T18:47:37
# Scan.end_time: 2023-05-08T18:53:24
# Scan.transient_id: 75507
# Scan.uid: 434180f4-cc27-4516-bbb2-9855999995f3
# Scan.plot_hint: ln(I0/It)  --  ln($5/$6)
# Column.1: energy eV
# Column.2: requested_energy eV
# Column.3: measurement_time seconds
# Column.4: xmu
# Column.5: I0 nA
# Column.6: It nA
# Column.7: Ir nA
# ///////////
# sample courtesy Igor Levin, NIST
# -----------
# energy  requested_energy  measurement_time  xmu  I0  It  Ir
  7590.112  7590.100  0.500  0.908162  142.577  57.4962  8.535959
  7610.114  7610.100  0.500  0.896080  141.589  57.792  8.697324
  7630.131  7630.100  0.500  0.884998  141.953  58.586  8.935218
  7650.120  7650.100  0.500  0.873282  142.216  59.3863  9.177778
  7670.116  7670.100  0.500  0.861785  141.916  59.9466  9.386626
  7690.121  7690.100  0.500  0.850367  141.66  60.5254  9.599176
  7710.121  7710.100  0.500  0.839876  141.289  61.0033  9.795134
  7730.116  7730.100  0.500  0.829286  140.903  61.4844  9.985468
  7750.081  7750.100  0.500  0.821205  140.616  61.857  10.1297
  7762.088  7762.100  0.500  0.819445  140.432  61.8851  10.1355
  7766.088  7766.100  0.500  0.820549  140.328  61.7709  10.0954
  7770.088  7770.100  0.500  0.823113  140.238  61.5734  10.017
  7774.092  7774.100  0.500  0.828702  140.135  61.1852  9.864005
  7778.090  7778.100  0.500  0.840765  140.057  60.4177  9.565326
  7780.578  7780.600  0.500  0.855218  139.993  59.5239  9.224342
  7781.578  7781.600  0.500  0.864099  139.958  58.9826  9.021417
  7782.578  7782.600  0.500  0.875875  139.926  58.2789  8.762734
  7783.579  7783.600  0.500  0.892961  139.9  57.2808  8.406361
  7784.585  7784.600  0.500  0.915600  139.862  55.9832  7.959671
  7785.586  7785.600  0.500  0.941299  139.85  54.5582  7.481957
  7786.585  7786.600  0.500  0.968845  139.808  53.0602  7.001091
  7787.582  7787.600  0.500  1.004613  139.791  51.1894  6.429924
  7788.581  7788.600  0.500  1.057562  139.747  48.5342  5.665597
  7789.591  7789.600  0.500  1.141739  139.753  44.618  4.655839
  7790.596  7790.600  0.500  1.280524  139.709  38.8239  3.418877
  7791.589  7791.600  0.500  1.515944  139.692  30.6765  2.120611
  7792.587  7792.600  0.500  1.861834  139.649  21.6997  1.140377
  7793.587  7793.600  0.500  2.271352  139.627  14.4057  0.592175
  7794.599  7794.600  0.500  2.578643  139.616  10.5936  0.372791
  7795.603  7795.600  0.500  2.642748  139.596  9.934435  0.325650
  7796.596  7796.600  0.500  2.493518  139.564  11.5307  0.379174
  7797.593  7797.600  0.500  2.257220  139.541  14.6017  0.526597
  7798.595  7798.600  0.500  2.009472  139.515  18.7032  0.791140
  7799.600  7799.600  0.500  1.787375  139.493  23.351  1.184617
  7800.600  7800.600  0.500  1.621565  139.466  27.5569  1.632751
  7801.603  7801.600  0.500  1.511266  139.447  30.7662  2.054072
  7802.591  7802.600  0.500  1.456371  139.412  32.4941  2.346995
  7803.591  7803.600  0.500  1.437391  139.412  33.1169  2.520991
  7804.598  7804.600  0.500  1.437851  139.366  33.0907  2.616201
  7805.604  7805.600  0.500  1.442189  139.308  32.9338  2.674554
  7806.606  7806.600  0.500  1.438864  139.311  33.0441  2.734289
  7807.603  7807.600  0.500  1.427694  139.292  33.4107  2.797614
  7808.600  7808.600  0.500  1.411935  139.257  33.933  2.854593
  7809.602  7809.600  0.500  1.393973  139.217  34.538  2.901750
  7810.605  7810.600  0.500  1.375603  139.2  35.174  2.938585
  7811.600  7811.600  0.500  1.359869  139.101  35.7066  2.963043
  7812.598  7812.600  0.500  1.350140  139.126  36.0621  2.979913
  7813.596  7813.600  0.500  1.347869  139.115  36.1412  2.986465
  7814.597  7814.600  0.500  1.349592  139.095  36.0736  2.993381
  7816.094  7816.090  0.500  1.353879  139.072  35.9134  3.015407
  7818.122  7818.110  0.500  1.358276  139.017  35.7418  3.042690
  7820.236  7820.220  0.500  1.378801  138.973  35.0047  2.963520
  7822.404  7822.400  0.500  1.418941  138.92  33.6145  2.774276
  7824.668  7824.660  0.500  1.454871  138.891  32.4213  2.584484
  7827.003  7826.990  0.500  1.466827  138.832  32.0224  2.449942
  7829.411  7829.400  0.500  1.464834  138.768  32.0716  2.352776
  7831.890  7831.880  0.500  1.461208  137.599  31.9168  2.293432
  7834.443  7834.440  0.500  1.456323  138.619  32.3109  2.346117
  7837.099  7837.080  0.500  1.444792  138.572  32.6746  2.442665
  7839.812  7839.800  0.500  1.426386  137.439  33.0095  2.547218
  7842.590  7842.590  0.500  1.410179  138.409  33.7855  2.666407
  7845.457  7845.450  0.500  1.404154  137.667  33.8076  2.713513
  7848.395  7848.390  0.500  1.404652  138.209  33.9237  2.760496
  7851.405  7851.410  0.500  1.401422  138.17  34.0238  2.796679
  7854.527  7854.510  0.500  1.389172  137.088  34.1736  2.831009
  7857.690  7857.680  0.500  1.375330  137.991  34.878  2.906355
  7860.935  7860.930  0.500  1.366959  137.933  35.1564  2.934433
  7864.260  7864.250  0.500  1.367786  137.836  35.1026  2.918660
  7867.659  7867.650  0.500  1.377139  137.768  34.7588  2.862476
  7871.138  7871.130  0.500  1.391048  137.68  34.2569  2.787014
  7874.683  7874.680  0.500  1.403744  137.612  33.8079  2.721176
  7878.320  7878.310  0.500  1.409861  137.504  33.5752  2.687842
  7882.018  7882.010  0.500  1.409189  137.419  33.5772  2.687735
  7885.799  7885.790  0.500  1.400988  137.317  33.8286  2.716931
  7889.662  7889.650  0.500  1.390017  137.24  34.1825  2.753298
  7893.586  7893.580  0.500  1.380661  137.106  34.4702  2.784674
  7897.601  7897.590  0.500  1.376771  137.017  34.5821  2.804487
  7901.691  7901.680  0.500  1.378374  136.854  34.4856  2.803742
  7905.847  7905.840  0.500  1.379715  136.792  34.4236  2.802768
  7910.088  7910.080  0.500  1.379234  136.688  34.4142  2.813155
  7914.401  7914.390  0.500  1.378048  136.566  34.4242  2.844268
  7918.793  7918.780  0.500  1.376419  136.473  34.4569  2.887750
  7923.271  7923.250  0.500  1.369265  136.371  34.6782  2.948719
  7927.813  7927.790  0.500  1.355697  135.426  34.9085  2.985559
  7932.426  7932.410  0.500  1.345968  136.051  35.4125  3.017701
[...]
  7956.664  7956.650  0.500  1.348758  135.919  35.2795  2.937614
  7961.739  7961.720  0.500  1.350957  135.748  35.1576  2.950122
  7966.888  7966.870  0.500  1.353211  135.583  35.0358  2.978357
  7972.118  7972.100  0.500  1.349549  135.353  35.1047  3.011831
  7977.429  7977.410  0.500  1.341848  135.024  35.2901  3.042249
  7982.801  7982.790  0.500  1.335472  134.795  35.4557  3.060408
  7988.266  7988.250  0.500  1.330366  134.68  35.6069  3.072867
  7993.790  7993.780  0.500  1.325470  134.536  35.7432  3.084468
  7999.406  7999.390  0.500  1.320755  134.371  35.8683  3.098749
  8005.083  8005.070  0.500  1.316942  134.246  35.9717  3.127968
  8010.859  8010.840  0.500  1.313870  134.291  36.0944  3.167892
  8016.685  8016.670  0.500  1.311306  134.218  36.1674  3.198325
  8022.602  8022.590  0.500  1.310439  134.091  36.1647  3.211993
  8028.594  8028.580  0.500  1.308826  133.913  36.1749  3.217380
  8034.673  8034.650  0.500  1.304061  133.745  36.302  3.227900
  8040.808  8040.790  0.500  1.298634  133.565  36.4503  3.241837
  8047.031  8047.010  0.500  1.295353  133.358  36.5136  3.249464
  8053.313  8053.300  0.500  1.293115  133.13  36.5329  3.258708
  8059.687  8059.670  0.500  1.290249  132.887  36.5708  3.276811
  8066.143  8066.120  0.500  1.287160  132.782  36.6551  3.301811
  8072.662  8072.650  0.500  1.284162  132.733  36.7514  3.331457
  8079.268  8079.250  0.500  1.280500  126.848  35.2508  3.218545
  8085.930  8085.920  0.500  1.274996  132.312  36.9722  3.394825
  8092.690  8092.670  0.500  1.269210  132.044  37.1116  3.418100
  8099.513  8099.500  0.500  1.264634  131.994  37.2674  3.438702
  8106.429  8106.410  0.500  1.260354  131.729  37.3524  3.456683
  8113.402  8113.390  0.500  1.256116  131.517  37.4505  3.485412
  8120.463  8120.450  0.500  1.252258  131.303  37.5341  3.514305
  8127.597  8127.580  0.500  1.248360  131.04  37.6051  3.539065
  8134.809  8134.790  0.500  1.245060  130.798  37.6599  3.559069
  8142.096  8142.080  0.500  1.240789  130.556  37.7509  3.579581
  8149.446  8149.440  0.500  1.235615  130.292  37.8702  3.607709
  8156.894  8156.880  0.500  1.230522  130.01  37.9811  3.634331
  8164.397  8164.390  0.500  1.225714  129.799  38.1024  3.658358
  8171.988  8171.980  0.500  1.221919  129.517  38.164  3.674893
  8179.657  8179.650  0.500  1.218446  129.226  38.2107  3.694152
  8187.406  8187.390  0.500  1.214644  128.938  38.2709  3.719225
  8195.220  8195.210  0.500  1.210526  128.701  38.3581  3.748543
  8203.115  8203.110  0.500  1.206186  128.4  38.4348  3.780003
  8211.093  8211.080  0.500  1.200559  128.136  38.5722  3.815153
  8219.138  8219.130  0.500  1.194644  127.815  38.7038  3.851012
  8227.261  8227.250  0.500  1.188765  127.517  38.8412  3.889556
  8235.464  8235.450  0.500  1.183094  127.218  38.9707  3.921504
  8243.740  8243.730  0.500  1.177946  126.9  39.0737  3.943749
  8252.093  8252.080  0.500  1.173716  126.6  39.1466  3.962585
  8260.526  8260.510  0.500  1.169738  126.285  39.2049  3.987470
  8269.023  8269.010  0.500  1.165696  125.973  39.2665  4.017058
  8277.603  8277.590  0.500  1.160909  125.324  39.2518  4.040953
  8286.261  8286.250  0.500  1.155392  125.259  39.4484  4.084172
  8295.013  8294.990  0.500  1.149787  124.892  39.554  4.119475
  8303.823  8303.800  0.500  1.143757  124.514  39.6726  4.158097
  8312.697  8312.680  0.500  1.138538  123.941  39.6966  4.186506
  8321.665  8321.640  0.500  1.134261  122.214  39.3112  4.165064
  8330.721  8330.680  0.500  1.129291  123.375  39.8824  4.238238
  8335.258  8335.230  0.500  1.126291  123.008  39.8833  4.244242