Folder: webxdiviewer/xdidata/Dy (part 2)

File: Dy-L1-DyScO3.xdi
# XDI/1.0 BlueSky/1.10.0 BMM/2023-1.0-py310-tiled
# Beamline.name: BMM (06BM) -- Beamline for Materials Measurement (NIST)
# Beamline.xray_source: NSLS-II three-pole wiggler
# Beamline.collimation: paraboloid mirror, 5 nm Rh on 30 nm Pt
# Beamline.focusing: not in use
# Beamline.harmonic_rejection: flat mirror, Pt stripe, pitch = 7.0 mrad relative to beam
# Beamline.software: Bluesky 1.10.0, Ophyd 1.7.0, DataBroker 2.0.0b13, Python 3.10.8, 2023-1.0-py310-tiled
# Detector.I0: 10 cm N2
# Detector.I1: 25 cm N2
# Detector.I2: 25 cm N2
# Element.symbol: Dy
# Element.edge: L1
# Element.reference: Dy
# Element.reference_material: Dy2O3
# Facility.name: NSLS-II
# Facility.energy: 3.0
# Facility.current: 400.5
# Facility.mode: top-off
# Facility.GUP: 123456
# Facility.SAF: 301027
# Facility.cycle: 2023-2
# Mono.name: Si(111)
# Mono.d_spacing: 3.13519
# Mono.encoder_resolution: 0.0000050 deg/ct
# Mono.angle_offset: 16.0754 deg
# Mono.scan_mode: pseudo channel cut
# Mono.scan_type: step
# Mono.direction: forward in energy
# Sample.name: DyScO3
# Sample.prep: powder on tape
# Sample.x: 149.848 mm
# Sample.y: 114.690 mm
# Sample.SDD_position: 205.000 mm
# Scan.experimenters: Bruce Ravel
# Scan.edge_energy: 9045.8
# Scan.start_time: 2023-05-08T22:21:22
# Scan.end_time: 2023-05-08T22:27:11
# Scan.transient_id: 75671
# Scan.uid: ff9fd2cd-21e4-40a2-96a1-0b5ddaa988f7
# Scan.plot_hint: ln(I0/It)  --  ln($5/$6)
# Column.1: energy eV
# Column.2: requested_energy eV
# Column.3: measurement_time seconds
# Column.4: xmu
# Column.5: I0 nA
# Column.6: It nA
# Column.7: Ir nA
# ///////////
# sample courtesy Igor Levin, NIST
# -----------
# energy  requested_energy  measurement_time  xmu  I0  It  Ir
  8845.805  8845.800  0.500  1.155781  122.102  38.4392  3.978937
  8865.849  8865.800  0.500  1.146760  121.671  38.6505  4.050536
  8885.868  8885.800  0.500  1.135348  121.259  38.9617  4.126566
  8905.826  8905.800  0.500  1.125673  120.758  39.178  4.188354
  8925.855  8925.800  0.500  1.117216  120.441  39.4072  4.255427
  8945.819  8945.800  0.500  1.106928  119.981  39.6626  4.320478
  8965.816  8965.800  0.500  1.098090  119.235  39.7657  4.364944
  8985.825  8985.800  0.500  1.090181  118.982  39.9966  4.431648
  9005.827  9005.800  0.500  1.080743  118.555  40.2308  4.501976
  9017.801  9017.800  0.500  1.075728  118.23  40.3223  4.538516
  9021.791  9021.800  0.500  1.073873  117.684  40.2106  4.531096
  9025.802  9025.800  0.500  1.072674  118.145  40.4165  4.560791
  9029.789  9029.800  0.500  1.071441  118.047  40.4329  4.565318
  9033.762  9033.800  0.500  1.070702  117.927  40.4217  4.564226
  9036.286  9036.300  0.500  1.070691  117.848  40.395  4.561849
  9037.278  9037.300  0.500  1.070668  117.814  40.3843  4.559857
  9038.277  9038.300  0.500  1.070903  117.783  40.364  4.556193
  9039.280  9039.300  0.500  1.071078  117.73  40.3389  4.550970
  9040.279  9040.300  0.500  1.071626  117.639  40.2855  4.543356
  9041.283  9041.300  0.500  1.071997  116.621  39.922  4.499387
  9042.283  9042.300  0.500  1.072590  116.637  39.9041  4.493613
  9043.293  9043.300  0.500  1.073587  117.508  40.162  4.520003
  9044.287  9044.300  0.500  1.074668  117.545  40.1311  4.510657
  9045.277  9045.300  0.500  1.076133  117.531  40.0677  4.495712
  9046.288  9046.300  0.500  1.078449  117.501  39.9649  4.473035
  9047.285  9047.300  0.500  1.082106  117.481  39.8119  4.440134
  9048.294  9048.300  0.500  1.087442  117.443  39.5875  4.390590
  9049.295  9049.300  0.500  1.095288  117.412  39.2675  4.323962
  9050.286  9050.300  0.500  1.104171  117.381  38.9101  4.253991
  9051.292  9051.300  0.500  1.113294  117.351  38.547  4.183738
  9052.291  9052.300  0.500  1.121091  117.319  38.2372  4.123065
  9053.286  9053.300  0.500  1.127397  117.284  37.9855  4.067483
  9054.292  9054.300  0.500  1.134448  117.247  37.7065  4.010679
  9055.291  9055.300  0.500  1.142768  117.212  37.3831  3.947930
  9056.302  9056.300  0.500  1.153907  117.176  36.9577  3.871400
  9057.301  9057.300  0.500  1.167546  117.135  36.4442  3.784297
  9058.298  9058.300  0.500  1.183308  117.123  35.8706  3.687132
  9059.298  9059.300  0.500  1.198634  117.082  35.3126  3.587465
  9060.284  9060.300  0.500  1.209580  117.044  34.917  3.502140
  9061.292  9061.300  0.500  1.216019  116.998  34.679  3.438429
  9062.304  9062.300  0.500  1.219185  116.818  34.5164  3.390206
  9063.308  9063.300  0.500  1.220302  115.793  34.1754  3.340042
  9064.310  9064.300  0.500  1.219355  116.154  34.3144  3.349828
  9065.294  9065.300  0.500  1.217362  116.764  34.5632  3.380165
  9066.295  9066.300  0.500  1.215219  116.78  34.6423  3.395229
  9067.294  9067.300  0.500  1.213367  116.762  34.7012  3.406085
  9068.303  9068.300  0.500  1.212147  116.731  34.7343  3.410285
  9069.302  9069.300  0.500  1.211636  116.706  34.7445  3.408301
  9070.301  9070.300  0.500  1.211641  116.674  34.7348  3.403709
  9071.801  9071.790  0.500  1.211093  116.642  34.7442  3.402024
  9073.807  9073.810  0.500  1.206543  116.582  34.8849  3.421263
  9075.925  9075.920  0.500  1.199117  116.515  35.1246  3.461625
  9078.111  9078.100  0.500  1.192668  116.462  35.3357  3.515245
  9080.362  9080.360  0.500  1.188318  116.147  35.3939  3.559632
  9082.700  9082.690  0.500  1.184267  116.01  35.4955  3.606298
  9085.114  9085.100  0.500  1.178818  116.205  35.7495  3.661670
  9087.582  9087.580  0.500  1.173465  116.155  35.926  3.698404
  9090.147  9090.140  0.500  1.169029  116.085  36.0639  3.721532
  9092.782  9092.780  0.500  1.166914  116.021  36.1202  3.731078
  9095.501  9095.500  0.500  1.167047  115.951  36.0938  3.727830
  9098.292  9098.290  0.500  1.167985  115.872  36.0353  3.719427
  9101.153  9101.150  0.500  1.169412  115.792  35.9593  3.707846
  9104.094  9104.090  0.500  1.171008  114.474  35.4932  3.653179
  9107.120  9107.110  0.500  1.172579  115.584  35.781  3.672527
  9110.222  9110.210  0.500  1.173356  115.525  35.7351  3.657025
  9113.402  9113.380  0.500  1.174103  115.893  35.8221  3.651650
  9116.627  9116.630  0.500  1.174840  115.798  35.7665  3.635678
  9119.955  9119.950  0.500  1.175401  115.728  35.7246  3.629060
  9123.357  9123.350  0.500  1.175274  115.621  35.6963  3.634172
  9126.837  9126.830  0.500  1.171367  115.52  35.8045  3.663184
  9130.395  9130.380  0.500  1.164723  115.419  36.0118  3.710171
  9134.014  9134.010  0.500  1.159365  115.308  36.1703  3.745712
  9137.721  9137.710  0.500  1.155731  115.177  36.2608  3.766181
  9141.497  9141.490  0.500  1.153396  114.959  36.2767  3.772908
  9145.359  9145.350  0.500  1.152130  113.754  35.942  3.740512
  9149.296  9149.280  0.500  1.151807  114.991  36.3445  3.790393
  9153.295  9153.290  0.500  1.151059  114.772  36.3025  3.799530
  9157.398  9157.380  0.500  1.149673  111.247  35.2364  3.702749
  9161.559  9161.540  0.500  1.147539  114.693  36.4055  3.839162
  9165.793  9165.780  0.500  1.144250  114.42  36.4386  3.856849
  9170.104  9170.090  0.500  1.141230  114.467  36.5639  3.878734
  9174.498  9174.480  0.500  1.137878  114.364  36.6534  3.891730
  9178.977  9178.950  0.500  1.134630  114.128  36.6969  3.895033
  9183.492  9183.490  0.500  1.132531  113.672  36.627  3.883268
  9188.118  9188.110  0.500  1.132297  114.077  36.7661  3.899146
[...]
  9212.358  9212.350  0.500  1.124089  113.329  36.8262  3.963198
  9217.420  9217.420  0.500  1.120319  113.184  36.9178  3.990899
  9222.576  9222.570  0.500  1.116020  113.052  37.0337  4.013199
  9227.812  9227.800  0.500  1.111873  112.918  37.1434  4.029048
  9233.126  9233.110  0.500  1.109043  112.77  37.1999  4.040185
  9238.514  9238.490  0.500  1.107144  112.642  37.2282  4.052927
  9243.963  9243.950  0.500  1.104738  112.506  37.2729  4.070328
  9249.489  9249.480  0.500  1.102149  112.38  37.3277  4.088764
  9255.102  9255.090  0.500  1.100047  112.233  37.3573  4.106859
  9260.782  9260.770  0.500  1.097990  112.072  37.3806  4.124248
  9266.562  9266.540  0.500  1.095843  111.933  37.4145  4.137909
  9272.389  9272.370  0.500  1.093541  111.777  37.4484  4.151036
  9278.317  9278.290  0.500  1.090775  111.672  37.5169  4.164234
  9284.294  9284.280  0.500  1.087405  111.495  37.5837  4.178474
  9290.364  9290.350  0.500  1.083818  111.32  37.6598  4.197374
  9296.491  9296.490  0.500  1.081018  111.125  37.6992  4.212554
  9302.723  9302.710  0.500  1.078530  111.101  37.7848  4.234814
  9309.020  9309.000  0.500  1.075702  110.941  37.8375  4.254858
  9315.389  9315.370  0.500  1.072727  110.773  37.8925  4.277138
  9321.831  9321.820  0.500  1.069364  110.549  37.9436  4.298802
  9328.368  9328.350  0.500  1.066162  110.453  38.0321  4.324554
  9334.975  9334.950  0.500  1.062750  110.288  38.1048  4.346797
  9341.651  9341.620  0.500  1.059165  110.105  38.1783  4.366630
  9348.398  9348.370  0.500  1.056099  109.929  38.2343  4.386416
  9355.218  9355.200  0.500  1.053098  109.774  38.2953  4.406557
  9362.129  9362.110  0.500  1.050204  109.604  38.3466  4.429161
  9369.110  9369.090  0.500  1.047156  109.43  38.4027  4.451049
  9376.174  9376.150  0.500  1.044007  109.253  38.4616  4.470732
  9383.310  9383.280  0.500  1.040999  109.09  38.52  4.489783
  9390.507  9390.490  0.500  1.037661  108.944  38.597  4.511369
  9397.794  9397.780  0.500  1.033968  108.786  38.6834  4.536105
  9405.158  9405.140  0.500  1.030620  108.615  38.7522  4.558362
  9412.603  9412.580  0.500  1.027362  108.454  38.8213  4.580480
  9420.106  9420.090  0.500  1.024198  108.292  38.886  4.603217
  9427.694  9427.680  0.500  1.020719  108.12  38.9593  4.627617
  9435.364  9435.350  0.500  1.017464  107.946  39.0234  4.654036
  9443.115  9443.090  0.500  1.013953  107.781  39.1008  4.682229
  9450.930  9450.910  0.500  1.010141  107.601  39.1847  4.711804
  9458.828  9458.810  0.500  1.006370  107.412  39.2637  4.738493
  9466.801  9466.780  0.500  1.002462  107.238  39.3538  4.765818
  9474.853  9474.830  0.500  0.998750  107.059  39.4342  4.792991
  9482.966  9482.950  0.500  0.995157  106.866  39.5047  4.818840
  9491.164  9491.150  0.500  0.991603  106.662  39.5698  4.839136
  9499.446  9499.430  0.500  0.988314  106.456  39.6233  4.861322
  9507.786  9507.780  0.500  0.984787  106.256  39.6887  4.886803
  9516.222  9516.210  0.500  0.981366  106.06  39.7512  4.913132
  9524.725  9524.710  0.500  0.977461  105.846  39.826  4.942434
  9533.307  9533.290  0.500  0.973661  105.633  39.8973  4.971738
  9541.955  9541.950  0.500  0.969665  105.429  39.9798  5.002659
  9550.710  9550.690  0.500  0.965917  105.214  40.0479  5.030722
  9559.525  9559.500  0.500  0.962053  104.996  40.1196  5.059519
  9568.392  9568.380  0.500  0.958384  104.762  40.1777  5.084281
  9577.363  9577.340  0.500  0.954832  104.557  40.2414  5.110185
  9586.403  9586.380  0.500  0.950784  104.312  40.31  5.136231
  9590.953  9590.930  0.500  0.948833  104.202  40.3461  5.151856

File: Dy-L1-DysprosiumOxide.xdi
# XDI/1.0 BlueSky/1.10.0 BMM/2023-1.0-py310-tiled
# Beamline.name: BMM (06BM) -- Beamline for Materials Measurement (NIST)
# Beamline.xray_source: NSLS-II three-pole wiggler
# Beamline.collimation: paraboloid mirror, 5 nm Rh on 30 nm Pt
# Beamline.focusing: not in use
# Beamline.harmonic_rejection: flat mirror, Pt stripe, pitch = 7.0 mrad relative to beam
# Beamline.software: Bluesky 1.10.0, Ophyd 1.7.0, DataBroker 2.0.0b13, Python 3.10.8, 2023-1.0-py310-tiled
# Detector.I0: 10 cm N2
# Detector.I1: 25 cm N2
# Detector.I2: 25 cm N2
# Element.symbol: Dy
# Element.edge: L1
# Element.reference: Dy
# Element.reference_material: Dy2O3
# Facility.name: NSLS-II
# Facility.energy: 3.0
# Facility.current: 400.8
# Facility.mode: top-off
# Facility.GUP: 301027
# Facility.SAF: 310583
# Facility.cycle: 2023-2
# Mono.name: Si(111)
# Mono.d_spacing: 3.13519
# Mono.encoder_resolution: 0.0000050 deg/ct
# Mono.angle_offset: 16.0754 deg
# Mono.scan_mode: pseudo channel cut
# Mono.scan_type: step
# Mono.direction: forward in energy
# Sample.name: Dy2O3
# Sample.prep: PEG pellet
# Sample.x: 109.138 mm
# Sample.y: 153.150 mm
# Sample.SDD_position: 205.000 mm
# Scan.experimenters: Bruce Ravel
# Scan.edge_energy: 9045.8
# Scan.start_time: 2023-05-28T16:11:12
# Scan.end_time: 2023-05-28T16:19:16
# Scan.transient_id: 78826
# Scan.uid: f60d82a3-a0e1-4be0-8544-d5ebbde5450b
# Scan.plot_hint: ln(It/Ir)  --  ln($6/$7)
# Column.1: energy eV
# Column.2: requested_energy eV
# Column.3: measurement_time seconds
# Column.4: xmu
# Column.5: I0 nA
# Column.6: It nA
# Column.7: Ir nA
# ///////////
# sample courtesy Martin Stennett, University of Sheffield
# -----------
# energy  requested_energy  measurement_time  xmu  I0  It  Ir
  8845.808  8845.800  0.500  2.426077  121.56  166.997  14.7597
  8875.799  8875.800  0.500  2.405802  121.043  166.877  15.0511
  8905.849  8905.800  0.500  2.390770  120.442  166.642  15.2576
  8935.824  8935.800  0.500  2.374829  119.886  166.452  15.4851
  8965.826  8965.800  0.500  2.361196  119.12  165.982  15.6533
  8995.820  8995.800  0.500  2.345073  118.393  165.517  15.8632
  9017.790  9017.800  0.500  2.333475  118.409  165.956  16.0908
  9023.775  9023.800  0.500  2.331022  118.348  165.955  16.1302
  9029.779  9029.800  0.500  2.329556  118.219  165.866  16.1452
  9035.784  9035.800  0.500  2.328892  118.098  165.842  16.1536
  9036.670  9036.700  0.500  2.328963  118.079  165.819  16.1502
  9037.570  9037.600  0.500  2.329074  118.039  165.792  16.1458
  9038.478  9038.500  0.500  2.329337  118.016  165.782  16.1406
  9039.371  9039.400  0.500  2.329551  118.001  165.777  16.1366
  9040.272  9040.300  0.500  2.329819  117.968  165.725  16.1273
  9041.177  9041.200  0.500  2.330329  117.651  165.294  16.0771
  9042.089  9042.100  0.500  2.330874  116.672  163.933  15.936
  9042.987  9043.000  0.500  2.331559  117.079  164.55  15.9851
  9043.899  9043.900  0.500  2.332255  117.724  165.447  16.061
  9044.797  9044.800  0.500  2.333387  117.772  165.548  16.0526
  9045.685  9045.700  0.500  2.334800  117.759  165.525  16.0278
  9046.584  9046.600  0.500  2.336864  117.757  165.558  15.9979
  9047.493  9047.500  0.500  2.339786  117.719  165.494  15.945
  9048.396  9048.400  0.500  2.344359  117.701  165.503  15.8732
  9049.306  9049.300  0.500  2.350146  117.683  165.479  15.7793
  9050.202  9050.200  0.500  2.356618  117.681  165.526  15.682
  9051.094  9051.100  0.500  2.363133  117.653  165.475  15.5753
  9052.005  9052.000  0.500  2.369634  117.623  165.494  15.4762
  9052.901  9052.900  0.500  2.375689  117.606  165.457  15.3793
  9053.805  9053.800  0.500  2.381709  117.599  165.44  15.2854
  9054.684  9054.700  0.500  2.387615  117.555  165.415  15.1931
  9055.602  9055.600  0.500  2.394103  117.543  165.414  15.0948
  9056.492  9056.500  0.500  2.401271  117.517  165.402  14.9859
  9057.407  9057.400  0.500  2.409033  117.493  165.39  14.8689
  9058.294  9058.300  0.500  2.417476  117.463  165.382  14.7432
  9059.192  9059.200  0.500  2.427301  117.437  165.32  14.5936
  9060.104  9060.100  0.500  2.438290  117.434  165.315  14.4337
  9060.999  9061.000  0.500  2.449494  117.381  165.267  14.2687
  9061.904  9061.900  0.500  2.459728  117.354  165.237  14.1209
  9062.785  9062.800  0.500  2.467925  117.168  164.996  13.9851
  9063.694  9063.700  0.500  2.472894  116.207  163.675  13.8044
  9064.600  9064.600  0.500  2.473961  116.357  163.893  13.808
  9065.499  9065.500  0.500  2.472949  117.161  165.046  13.9193
  9066.398  9066.400  0.500  2.470848  117.217  165.153  13.9576
  9067.287  9067.300  0.500  2.469111  117.287  165.283  13.9929
  9068.197  9068.200  0.500  2.468442  117.576  165.696  14.0372
  9069.104  9069.100  0.500  2.468295  117.567  165.702  14.0398
  9070.000  9070.000  0.500  2.469197  117.542  165.684  14.0256
  9070.790  9070.800  0.500  2.469837  117.54  165.693  14.0174
  9073.843  9073.810  0.500  2.470000  117.448  165.621  14.009
  9077.082  9077.000  0.500  2.461478  117.375  165.593  14.1265
  9080.345  9080.360  0.500  2.445921  117.221  165.397  14.331
  9083.869  9083.880  0.500  2.430223  117.123  165.329  14.5518
  9087.571  9087.580  0.500  2.420498  117.112  165.401  14.7004
  9091.440  9091.450  0.500  2.416625  117.031  165.342  14.7522
  9095.483  9095.500  0.500  2.415970  116.943  165.296  14.7578
  9099.704  9099.710  0.500  2.416718  116.878  165.283  14.7456
  9104.080  9104.090  0.500  2.418675  115.844  163.895  14.5932
  9108.642  9108.650  0.500  2.422272  116.653  165.103  14.6479
  9113.373  9113.380  0.500  2.427436  116.573  165.077  14.5702
  9118.275  9118.280  0.500  2.431375  116.46  165.014  14.5074
  9123.335  9123.350  0.500  2.429622  116.363  164.952  14.5273
  9128.589  9128.590  0.500  2.421225  116.251  164.884  14.6438
  9134.021  9134.010  0.500  2.411912  116.137  164.838  14.7767
  9139.600  9139.590  0.500  2.407505  115.979  164.723  14.8316
  9145.355  9145.350  0.500  2.405601  112.694  160.141  14.4465
  9151.270  9151.280  0.500  2.402246  115.791  164.624  14.9008
  9157.394  9157.380  0.500  2.396503  113.786  161.868  14.7358
  9163.658  9163.650  0.500  2.390269  115.603  164.577  15.0761
  9170.104  9170.090  0.500  2.385792  114.638  163.322  15.0283
  9176.711  9176.700  0.500  2.384553  115.376  164.476  15.1532
  9183.507  9183.490  0.500  2.385309  113.272  161.619  14.8788
  9190.466  9190.450  0.500  2.384243  115.136  164.369  15.148
  9197.578  9197.570  0.500  2.381008  114.926  164.217  15.1831
  9204.876  9204.870  0.500  2.376930  114.739  164.068  15.2312
  9212.351  9212.350  0.500  2.369667  114.59  163.971  15.3333
  9220.003  9219.990  0.500  2.363034  114.441  163.859  15.4248
  9227.815  9227.800  0.500  2.360627  114.256  163.763  15.4529
  9235.788  9235.790  0.500  2.358059  114.105  163.627  15.4798
  9243.970  9243.950  0.500  2.353484  113.935  163.566  15.5449
  9252.282  9252.270  0.500  2.348322  113.753  163.464  15.6156
  9260.786  9260.770  0.500  2.342473  113.576  163.322  15.6936
  9269.462  9269.450  0.500  2.338418  113.397  163.189  15.7445
  9278.306  9278.290  0.500  2.335507  113.251  163.098  15.7816
  9287.313  9287.300  0.500  2.332466  113.029  162.946  15.8149
  9296.502  9296.490  0.500  2.328002  112.807  162.761  15.8677
  9305.867  9305.850  0.500  2.323457  112.599  162.61  15.9251
  9315.385  9315.370  0.500  2.317421  112.495  162.619  16.0224
  9325.089  9325.070  0.500  2.311417  111.719  161.67  16.0248
  9334.971  9334.950  0.500  2.305865  112.083  162.362  16.1831
  9345.006  9344.990  0.500  2.301597  111.859  162.167  16.2327
  9355.230  9355.200  0.500  2.296414  111.99  162.533  16.3539
  9365.612  9365.590  0.500  2.290822  111.765  162.389  16.431
  9376.171  9376.150  0.500  2.285690  111.536  162.209  16.4973
  9386.901  9386.880  0.500  2.281251  111.311  162.04  16.5534
  9397.821  9397.780  0.500  2.276377  111.091  161.894  16.6193
  9408.851  9408.850  0.500  2.270987  110.845  161.714  16.6905
  9420.106  9420.090  0.500  2.265808  110.594  161.519  16.757
  9431.531  9431.510  0.500  2.259933  110.353  161.331  16.836
  9443.104  9443.090  0.500  2.253389  110.091  161.116  16.9241
  9454.875  9454.850  0.500  2.247169  109.847  160.931  17.0101
  9466.797  9466.780  0.500  2.241293  109.574  160.714  17.0873
  9478.896  9478.880  0.500  2.235443  109.309  160.494  17.164
  9491.172  9491.150  0.500  2.230526  109.046  160.298  17.2275
  9503.608  9503.590  0.500  2.225280  108.763  160.049  17.2913
  9516.234  9516.210  0.500  2.218945  108.495  159.821  17.3763
  9529.008  9528.990  0.500  2.212591  108.212  159.615  17.4645
  9541.967  9541.950  0.500  2.205974  107.92  159.358  17.5522
  9555.108  9555.080  0.500  2.199684  107.621  159.111  17.6355
  9568.396  9568.380  0.500  2.193666  107.315  158.822  17.7098
  9581.857  9581.850  0.500  2.188032  107.015  158.591  17.7839
  9595.508  9595.500  0.500  2.181481  106.699  158.291  17.867
  9609.314  9609.310  0.500  2.174280  106.391  158.052  17.9689
  9623.305  9623.300  0.500  2.167489  106.054  157.726  18.054
  9637.471  9637.460  0.500  2.161122  105.712  157.384  18.13
  9651.807  9651.790  0.500  2.155073  105.369  157.066  18.2031
  9666.305  9666.290  0.500  2.149029  105.017  156.742  18.2757
  9680.980  9680.960  0.500  2.142256  104.686  156.424  18.3625
  9695.823  9695.800  0.500  2.134704  104.333  156.092  18.4625
  9710.843  9710.820  0.500  2.127536  102.557  153.617  18.3005
  9726.021  9726.000  0.500  2.120761  103.656  155.479  18.6482
  9741.379  9741.360  0.500  2.114201  103.305  155.162  18.7327
  9756.909  9756.890  0.500  2.107792  102.952  154.802  18.8093
  9772.619  9772.590  0.500  2.100992  102.434  154.236  18.8684
  9788.479  9788.460  0.500  2.093240  102.223  154.114  19.0002
  9804.546  9804.510  0.500  2.085896  101.628  153.399  19.0515
  9820.763  9820.720  0.500  2.078718  101.163  152.915  19.1283
  9837.143  9837.110  0.500  2.071706  100.95  152.78  19.2458
  9853.706  9853.670  0.500  2.064940  100.729  152.64  19.3587
  9870.439  9870.400  0.500  2.057592  100.333  152.239  19.4503
  9887.335  9887.300  0.500  2.050159  99.882  151.735  19.5305
  9898.699  9898.660  0.500  2.045193  99.6488  151.524  19.6005