Folder: webxdiviewer/xdidata/Dy (part 3)

File: Dy-L3-Dy2Ti2O7.xdi
# XDI/1.0 BlueSky/1.10.0 BMM/2023-1.0-py310-tiled
# Beamline.name: BMM (06BM) -- Beamline for Materials Measurement (NIST)
# Beamline.xray_source: NSLS-II three-pole wiggler
# Beamline.collimation: paraboloid mirror, 5 nm Rh on 30 nm Pt
# Beamline.focusing: not in use
# Beamline.harmonic_rejection: flat mirror, Si stripe, pitch = 7.0 mrad relative to beam
# Beamline.software: Bluesky 1.10.0, Ophyd 1.7.0, DataBroker 2.0.0b13, Python 3.10.8, 2023-1.0-py310-tiled
# Detector.I0: 10 cm N2
# Detector.I1: 25 cm N2
# Detector.I2: 25 cm N2
# Element.symbol: Dy
# Element.edge: L3
# Element.reference: Dy
# Element.reference_material: Dy2O3
# Facility.name: NSLS-II
# Facility.energy: 3.0
# Facility.current: 398.9
# Facility.mode: top-off
# Facility.GUP: 123456
# Facility.SAF: 301027
# Facility.cycle: 2023-2
# Mono.name: Si(111)
# Mono.d_spacing: 3.13519
# Mono.encoder_resolution: 0.0000050 deg/ct
# Mono.angle_offset: 16.0754 deg
# Mono.scan_mode: pseudo channel cut
# Mono.scan_type: step
# Mono.direction: forward in energy
# Sample.name: Dy2Ti2O7
# Sample.prep: Powder in PEG pellet
# Sample.x: 149.848 mm
# Sample.y: 114.690 mm
# Sample.SDD_position: 205.000 mm
# Scan.experimenters: Bruce Ravel
# Scan.edge_energy: 7790.1
# Scan.start_time: 2023-05-08T18:41:04
# Scan.end_time: 2023-05-08T18:47:04
# Scan.transient_id: 75502
# Scan.uid: c42f417d-762a-4568-a2ca-022485f0c13c
# Scan.plot_hint: ln(I0/It)  --  ln($5/$6)
# Column.1: energy eV
# Column.2: requested_energy eV
# Column.3: measurement_time seconds
# Column.4: xmu
# Column.5: I0 nA
# Column.6: It nA
# Column.7: Ir nA
# ///////////
# sample courtesy Martin Stennett, University of Sheffield
# -----------
# energy  requested_energy  measurement_time  xmu  I0  It  Ir
  7590.102  7590.100  0.500  1.882660  142.831  21.7367  3.216460
  7610.121  7610.100  0.500  1.863727  141.844  21.9992  3.299993
  7630.181  7630.100  0.500  1.845741  142.21  22.4562  3.414303
  7650.123  7650.100  0.500  1.827882  142.497  22.907  3.529603
  7670.118  7670.100  0.500  1.810328  142.213  23.2661  3.631682
  7690.116  7690.100  0.500  1.792992  141.963  23.6314  3.736528
  7710.118  7710.100  0.500  1.776175  141.607  23.9719  3.838635
  7730.114  7730.100  0.500  1.760136  141.229  24.2944  3.934463
  7750.206  7750.100  0.500  1.747483  140.85  24.5377  4.008200
  7762.070  7762.100  0.500  1.745244  140.566  24.5431  4.010489
  7766.081  7766.100  0.500  1.746933  140.484  24.4875  3.992335
  7770.085  7770.100  0.500  1.750986  140.412  24.376  3.955590
  7774.087  7774.100  0.500  1.759490  140.309  24.1517  3.884018
  7778.087  7778.100  0.500  1.777907  140.217  23.6955  3.742017
  7780.580  7780.600  0.500  1.800129  140.168  23.1666  3.581326
  7781.575  7781.600  0.500  1.813719  140.147  22.8505  3.486584
  7782.576  7782.600  0.500  1.831792  140.136  22.4394  3.365718
  7783.579  7783.600  0.500  1.857718  140.122  21.863  3.199950
  7784.588  7784.600  0.500  1.891631  140.105  21.1314  2.996220
  7785.586  7785.600  0.500  1.930588  140.07  20.3189  2.779089
  7786.582  7786.600  0.500  1.972103  140.04  19.4885  2.564365
  7787.584  7787.600  0.500  2.026506  140.02  18.454  2.311808
  7788.586  7788.600  0.500  2.108702  139.991  16.9942  1.977481
  7789.596  7789.600  0.500  2.237350  139.976  14.9412  1.553813
  7790.594  7790.600  0.500  2.436671  139.964  12.24  1.075736
  7791.591  7791.600  0.500  2.733376  139.922  9.094837  0.626330
  7792.587  7792.600  0.500  3.074993  139.928  6.463246  0.336782
  7793.590  7793.600  0.500  3.377289  139.916  4.776710  0.194163
  7794.599  7794.600  0.500  3.561381  139.89  3.972821  0.138806
  7795.600  7795.600  0.500  3.645292  139.866  3.652437  0.119430
  7796.594  7796.600  0.500  3.639021  139.848  3.674929  0.120435
  7797.588  7797.600  0.500  3.521760  139.809  4.130995  0.148438
  7798.595  7798.600  0.500  3.317564  139.794  5.066283  0.214039
  7799.603  7799.600  0.500  3.089171  139.782  6.365641  0.322725
  7800.605  7800.600  0.500  2.897829  139.755  7.706485  0.456337
  7801.601  7801.600  0.500  2.752289  139.744  8.913119  0.593884
  7802.596  7802.600  0.500  2.657141  139.707  9.800257  0.706285
  7803.597  7803.600  0.500  2.594457  139.671  10.4315  0.792221
  7804.608  7804.600  0.500  2.550004  139.657  10.9046  0.860129
  7805.607  7805.600  0.500  2.518647  139.625  11.2494  0.910749
  7806.596  7806.600  0.500  2.496428  139.61  11.5009  0.949493
  7807.595  7807.600  0.500  2.482796  139.609  11.6586  0.973287
  7808.594  7808.600  0.500  2.477293  139.577  11.7203  0.983699
  7809.599  7809.600  0.500  2.478668  139.504  11.6981  0.980384
  7810.592  7810.600  0.500  2.485008  139.504  11.6242  0.968350
  7811.592  7811.600  0.500  2.493028  139.499  11.5309  0.954095
  7812.600  7812.600  0.500  2.497937  139.426  11.4684  0.944811
  7813.604  7813.600  0.500  2.497537  139.431  11.4734  0.944984
  7814.595  7814.600  0.500  2.492567  139.397  11.5278  0.953964
  7816.092  7816.090  0.500  2.479057  139.372  11.6825  0.977851
  7818.116  7818.110  0.500  2.463109  139.31  11.865  1.007475
  7820.231  7820.220  0.500  2.469810  139.25  11.7807  0.994446
  7822.412  7822.400  0.500  2.499396  139.215  11.4344  0.940910
  7824.668  7824.660  0.500  2.539883  139.151  10.9756  0.872187
  7826.998  7826.990  0.500  2.588429  139.091  10.451  0.797188
  7829.408  7829.400  0.500  2.637626  139.005  9.943170  0.727184
  7831.890  7831.880  0.500  2.661741  137.796  9.621801  0.689030
  7834.445  7834.440  0.500  2.648995  138.803  9.816477  0.710551
  7837.088  7837.080  0.500  2.613234  138.739  10.1692  0.757882
  7839.809  7839.800  0.500  2.575545  137.584  10.4718  0.805223
  7842.598  7842.590  0.500  2.547767  138.549  10.8423  0.853120
  7845.454  7845.450  0.500  2.527834  137.794  11.0003  0.880056
  7848.402  7848.390  0.500  2.511893  138.331  11.2206  0.910181
  7851.419  7851.410  0.500  2.499872  138.276  11.3518  0.929915
  7854.519  7854.510  0.500  2.490454  137.146  11.3656  0.938956
  7857.695  7857.680  0.500  2.483257  138.025  11.5211  0.956929
  7860.946  7860.930  0.500  2.480868  137.939  11.5414  0.960413
  7864.255  7864.250  0.500  2.485263  137.893  11.487  0.952023
  7867.654  7867.650  0.500  2.496053  137.778  11.3542  0.931976
  7871.138  7871.130  0.500  2.510113  137.683  11.188  0.906990
  7874.694  7874.680  0.500  2.521531  137.573  11.0522  0.886950
  7878.320  7878.310  0.500  2.527493  137.494  10.9801  0.876146
  7882.023  7882.010  0.500  2.527098  137.371  10.9746  0.875739
  7885.794  7885.790  0.500  2.522895  137.276  11.0132  0.881560
  7889.654  7889.650  0.500  2.519082  137.188  11.0483  0.887104
  7893.592  7893.580  0.500  2.515089  137.052  11.0815  0.892379
  7897.601  7897.590  0.500  2.510282  136.937  11.1255  0.899253
  7901.694  7901.680  0.500  2.506691  136.792  11.1537  0.903836
  7905.850  7905.840  0.500  2.504099  136.694  11.1746  0.906673
  7910.096  7910.080  0.500  2.498785  136.576  11.2244  0.914915
  7914.409  7914.390  0.500  2.485672  136.982  11.4065  0.939599
  7918.806  7918.780  0.500  2.468082  136.86  11.5985  0.969564
  7923.268  7923.250  0.500  2.451369  136.744  11.784  0.998405
  7927.808  7927.790  0.500  2.444202  135.803  11.7871  1.004895
[...]
  7956.661  7956.650  0.500  2.471841  135.832  11.4682  0.952004
  7961.706  7961.720  0.500  2.462077  135.662  11.5662  0.967227
  7966.859  7966.870  0.500  2.446503  135.501  11.7338  0.994209
  7972.107  7972.100  0.500  2.435289  135.284  11.8471  1.012896
  7977.426  7977.410  0.500  2.428736  134.918  11.8928  1.022213
  7982.798  7982.790  0.500  2.426845  134.704  11.8964  1.023703
  7988.257  7988.250  0.500  2.426286  134.573  11.8915  1.022947
  7993.795  7993.780  0.500  2.425845  134.423  11.8835  1.021942
  7999.406  7999.390  0.500  2.423379  134.255  11.8979  1.024766
  8005.086  8005.070  0.500  2.415110  134.168  11.9889  1.038967
  8010.848  8010.840  0.500  2.403670  134.2  12.1297  1.061292
  8016.682  8016.670  0.500  2.394204  134.136  12.2393  1.078967
  8022.605  8022.590  0.500  2.388855  133.985  12.291  1.088257
  8028.591  8028.580  0.500  2.386458  133.835  12.3068  1.090398
  8034.659  8034.650  0.500  2.385920  133.669  12.2981  1.089641
  8040.811  8040.790  0.500  2.384578  133.457  12.2951  1.090801
  8047.023  8047.010  0.500  2.383294  133.264  12.2931  1.090589
  8053.319  8053.300  0.500  2.379826  133.029  12.3141  1.094708
  8059.687  8059.670  0.500  2.373777  132.838  12.371  1.104476
  8066.132  8066.120  0.500  2.366863  132.724  12.4461  1.116880
  8072.671  8072.650  0.500  2.358709  132.632  12.5394  1.132861
  8079.268  8079.250  0.500  2.349037  126.713  12.0962  1.100883
  8085.933  8085.920  0.500  2.342130  132.21  12.7084  1.163254
  8092.685  8092.670  0.500  2.337725  131.974  12.7417  1.169303
  8099.513  8099.500  0.500  2.334743  131.884  12.771  1.174277
  8106.417  8106.410  0.500  2.330462  131.649  12.803  1.180972
  8113.405  8113.390  0.500  2.323614  131.413  12.8679  1.193460
  8120.466  8120.450  0.500  2.315427  131.221  12.9546  1.208561
  8127.591  8127.580  0.500  2.308579  130.964  13.0182  1.221064
  8134.806  8134.790  0.500  2.303140  130.739  13.0667  1.230637
  8142.088  8142.080  0.500  2.298481  130.49  13.1026  1.238496
  8149.449  8149.440  0.500  2.292401  130.229  13.1562  1.249524
  8156.889  8156.880  0.500  2.285735  129.97  13.2179  1.260669
  8164.400  8164.390  0.500  2.281352  129.702  13.2485  1.267919
  8171.991  8171.980  0.500  2.276978  129.436  13.2793  1.274933
  8179.659  8179.650  0.500  2.271210  129.131  13.3247  1.283713
  8187.406  8187.390  0.500  2.264278  128.898  13.3932  1.297296
  8195.220  8195.210  0.500  2.256997  128.624  13.4623  1.311086
  8203.121  8203.110  0.500  2.249143  128.344  13.539  1.326893
  8211.090  8211.080  0.500  2.241647  128.065  13.6112  1.341805
  8219.141  8219.130  0.500  2.233577  127.75  13.6877  1.357731
  8227.264  8227.250  0.500  2.225067  127.464  13.7738  1.374441
  8235.455  8235.450  0.500  2.218510  127.152  13.8305  1.387089
  8243.742  8243.730  0.500  2.214141  126.86  13.8591  1.393988
  8252.099  8252.080  0.500  2.209648  126.528  13.8851  1.400872
  8260.520  8260.510  0.500  2.203531  126.231  13.9375  1.412373
  8269.018  8269.010  0.500  2.196062  125.899  14.005  1.427911
  8277.603  8277.590  0.500  2.188142  125.252  14.0438  1.441111
  8286.266  8286.250  0.500  2.180204  125.202  14.1502  1.459923
  8295.004  8294.990  0.500  2.172248  124.847  14.2228  1.476236
  8303.823  8303.800  0.500  2.163975  124.456  14.296  1.493194
  8312.730  8312.680  0.500  2.155975  123.883  14.3445  1.507099
  8321.700  8321.640  0.500  2.149490  122.136  14.2342  1.502637
  8330.738  8330.680  0.500  2.144861  123.295  14.4358  1.529126
  8335.270  8335.230  0.500  2.142698  122.947  14.4263  1.529645

File: Dy-L3-Dy2TiO5.xdi
# XDI/1.0 BlueSky/1.10.0 BMM/2023-1.0-py310-tiled
# Beamline.name: BMM (06BM) -- Beamline for Materials Measurement (NIST)
# Beamline.xray_source: NSLS-II three-pole wiggler
# Beamline.collimation: paraboloid mirror, 5 nm Rh on 30 nm Pt
# Beamline.focusing: not in use
# Beamline.harmonic_rejection: flat mirror, Si stripe, pitch = 7.0 mrad relative to beam
# Beamline.software: Bluesky 1.10.0, Ophyd 1.7.0, DataBroker 2.0.0b13, Python 3.10.8, 2023-1.0-py310-tiled
# Detector.I0: 10 cm N2
# Detector.I1: 25 cm N2
# Detector.I2: 25 cm N2
# Element.symbol: Dy
# Element.edge: L3
# Element.reference: Dy
# Element.reference_material: Dy2O3
# Facility.name: NSLS-II
# Facility.energy: 3.0
# Facility.current: 398.4
# Facility.mode: top-off
# Facility.GUP: 123456
# Facility.SAF: 301027
# Facility.cycle: 2023-2
# Mono.name: Si(111)
# Mono.d_spacing: 3.13519
# Mono.encoder_resolution: 0.0000050 deg/ct
# Mono.angle_offset: 16.0754 deg
# Mono.scan_mode: pseudo channel cut
# Mono.scan_type: step
# Mono.direction: forward in energy
# Sample.name: Dy2TiO5
# Sample.prep: Powder in PEG pellet
# Sample.x: 149.848 mm
# Sample.y: 114.690 mm
# Sample.SDD_position: 205.000 mm
# Scan.experimenters: Bruce Ravel
# Scan.edge_energy: 7790.1
# Scan.start_time: 2023-05-08T18:34:25
# Scan.end_time: 2023-05-08T18:40:22
# Scan.transient_id: 75497
# Scan.uid: 38159fd1-9415-4979-a2f4-ceec8697364b
# Scan.plot_hint: ln(I0/It)  --  ln($5/$6)
# Column.1: energy eV
# Column.2: requested_energy eV
# Column.3: measurement_time seconds
# Column.4: xmu
# Column.5: I0 nA
# Column.6: It nA
# Column.7: Ir nA
# ///////////
# sample courtesy Martin Stennett, University of Sheffield
# -----------
# energy  requested_energy  measurement_time  xmu  I0  It  Ir
  7590.105  7590.100  0.500  1.428831  142.932  34.2448  5.081482
  7610.119  7610.100  0.500  1.414697  142.502  34.6278  5.208468
  7630.121  7630.100  0.500  1.399879  142.894  35.2414  5.371805
  7650.125  7650.100  0.500  1.385501  142.683  35.6991  5.514966
  7670.123  7670.100  0.500  1.371523  142.41  36.1323  5.654736
  7690.076  7690.100  0.500  1.357741  141.966  36.5194  5.788500
  7710.075  7710.100  0.500  1.344436  141.494  36.8857  5.921016
  7730.080  7730.100  0.500  1.331622  141.112  37.2605  6.049216
  7750.081  7750.100  0.500  1.321068  140.783  37.5679  6.148994
  7762.085  7762.100  0.500  1.318628  140.547  37.5967  6.155242
  7766.083  7766.100  0.500  1.319336  140.442  37.542  6.132032
  7770.080  7770.100  0.500  1.322074  140.348  37.4141  6.083337
  7774.079  7774.100  0.500  1.327939  140.244  37.168  5.988919
  7778.080  7778.100  0.500  1.340513  140.186  36.6884  5.804476
  7780.578  7780.600  0.500  1.355552  140.11  36.121  5.592914
  7781.575  7781.600  0.500  1.365113  140.102  35.7753  5.467394
  7782.573  7782.600  0.500  1.377671  140.073  35.3214  5.305760
  7783.579  7783.600  0.500  1.394976  140.053  34.7106  5.088658
  7784.575  7784.600  0.500  1.418141  140.029  33.91  4.815891
  7785.586  7785.600  0.500  1.444718  140  33.0139  4.521780
  7786.585  7786.600  0.500  1.472477  139.984  32.1063  4.229337
  7787.584  7787.600  0.500  1.508287  139.94  30.9671  3.882281
  7788.578  7788.600  0.500  1.561560  139.907  29.3536  3.419145
  7789.594  7789.600  0.500  1.643991  139.908  27.0313  2.809875
  7790.594  7790.600  0.500  1.768935  139.876  23.8508  2.090563
  7791.586  7791.600  0.500  1.953637  139.835  19.8226  1.358531
  7792.592  7792.600  0.500  2.171883  139.822  15.9345  0.826524
  7793.593  7793.600  0.500  2.368811  139.806  13.0847  0.534043
  7794.591  7794.600  0.500  2.494173  139.782  11.5411  0.408085
  7795.592  7795.600  0.500  2.544249  139.741  10.9741  0.363694
  7796.591  7796.600  0.500  2.523901  139.724  11.1984  0.373216
  7797.593  7797.600  0.500  2.437127  139.691  12.2107  0.445691
  7798.598  7798.600  0.500  2.308830  139.675  13.8805  0.593601
  7799.598  7799.600  0.500  2.169420  139.62  15.9508  0.815575
  7800.600  7800.600  0.500  2.051616  139.612  17.944  1.069706
  7801.601  7801.600  0.500  1.961743  139.58  19.6268  1.317033
  7802.601  7802.600  0.500  1.903102  139.584  20.8128  1.510681
  7803.599  7803.600  0.500  1.865357  139.555  21.6088  1.651136
  7804.595  7804.600  0.500  1.839902  139.543  22.1641  1.756990
  7805.602  7805.600  0.500  1.822411  139.511  22.55  1.835280
  7806.603  7806.600  0.500  1.810260  139.474  22.8196  1.892434
  7807.597  7807.600  0.500  1.802526  139.432  22.9898  1.928716
  7808.592  7808.600  0.500  1.798695  139.427  23.0773  1.944899
  7809.597  7809.600  0.500  1.797525  139.382  23.0967  1.943924
  7810.602  7810.600  0.500  1.799071  139.36  23.0575  1.929101
  7811.602  7811.600  0.500  1.801359  139.331  23  1.911093
  7812.593  7812.600  0.500  1.803679  139.32  22.9449  1.898521
  7813.599  7813.600  0.500  1.804954  139.286  22.91  1.896307
  7814.602  7814.600  0.500  1.805417  139.263  22.8957  1.903540
  7816.092  7816.090  0.500  1.805309  139.231  22.8929  1.925410
  7818.114  7818.110  0.500  1.804714  139.207  22.9025  1.952738
  7820.231  7820.220  0.500  1.812162  139.155  22.7241  1.927206
  7822.417  7822.400  0.500  1.830244  139.108  22.3093  1.844490
  7824.668  7824.660  0.500  1.853727  139.051  21.7827  1.739616
  7827.000  7826.990  0.500  1.877918  139.001  21.2544  1.628728
  7829.403  7829.400  0.500  1.899001  138.953  20.8038  1.529563
  7831.883  7831.880  0.500  1.908542  137.77  20.4307  1.471227
  7834.448  7834.440  0.500  1.900006  138.795  20.7592  1.510975
  7837.088  7837.080  0.500  1.877799  138.783  21.2236  1.590617
  7839.809  7839.800  0.500  1.851622  137.648  21.6083  1.670931
  7842.601  7842.590  0.500  1.831505  138.612  22.2018  1.756523
  7845.454  7845.450  0.500  1.818871  137.862  22.3624  1.798272
  7848.400  7848.390  0.500  1.812284  138.451  22.6064  1.842815
  7851.419  7851.410  0.500  1.809105  138.422  22.6736  1.866734
  7854.519  7854.510  0.500  1.807352  137.302  22.5296  1.869611
  7857.690  7857.680  0.500  1.807273  138.231  22.6839  1.893479
  7860.938  7860.930  0.500  1.808574  138.177  22.6455  1.893489
  7864.260  7864.250  0.500  1.811727  138.115  22.5642  1.879886
  7867.664  7867.650  0.500  1.815796  138.023  22.4575  1.852119
  7871.140  7871.130  0.500  1.818855  137.951  22.3772  1.823618
  7874.689  7874.680  0.500  1.819718  137.861  22.3433  1.801889
  7878.320  7878.310  0.500  1.819857  137.779  22.3269  1.790810
  7882.020  7882.010  0.500  1.820418  137.689  22.2999  1.788779
  7885.794  7885.790  0.500  1.820382  137.587  22.2842  1.792763
  7889.664  7889.650  0.500  1.819584  137.499  22.2876  1.798507
  7893.594  7893.580  0.500  1.817191  137.398  22.3246  1.806693
  7897.603  7897.590  0.500  1.814102  137.292  22.3765  1.817912
  7901.699  7901.680  0.500  1.809878  137.149  22.4477  1.827983
  7905.863  7905.840  0.500  1.804406  137.086  22.5606  1.840408
  7910.101  7910.080  0.500  1.796386  136.984  22.7253  1.861344
  7914.422  7914.390  0.500  1.787853  136.872  22.9013  1.895898
  7918.774  7918.780  0.500  1.780987  137.304  23.1318  1.942300
  7923.242  7923.250  0.500  1.777613  137.212  23.1945  1.975654
  7927.778  7927.790  0.500  1.775983  136.262  23.0714  1.976346
  7932.415  7932.410  0.500  1.776091  136.912  23.1789  1.977668
[...]
  7956.672  7956.650  0.500  1.773066  136.338  23.1518  1.930791
  7961.733  7961.720  0.500  1.767963  136.195  23.2458  1.953633
  7966.880  7966.870  0.500  1.763804  136.009  23.3109  1.984504
  7972.110  7972.100  0.500  1.759797  135.78  23.365  2.007453
  7977.418  7977.410  0.500  1.756559  135.463  23.3861  2.019272
  7982.798  7982.790  0.500  1.753738  135.241  23.4138  2.024143
  7988.260  7988.250  0.500  1.751010  135.111  23.4551  2.027725
  7993.790  7993.780  0.500  1.747861  134.985  23.5072  2.031970
  7999.406  7999.390  0.500  1.743538  134.814  23.5791  2.040489
  8005.086  8005.070  0.500  1.738481  134.705  23.6795  2.062088
  8010.859  8010.840  0.500  1.734391  134.758  23.7858  2.090779
  8016.677  8016.670  0.500  1.730536  134.685  23.8647  2.114095
  8022.605  8022.590  0.500  1.727207  134.529  23.9166  2.127324
  8028.597  8028.580  0.500  1.724128  134.385  23.9646  2.133584
  8034.656  8034.650  0.500  1.721449  134.218  23.9991  2.136934
  8040.803  8040.790  0.500  1.718574  134.017  24.0322  2.140696
  8047.020  8047.010  0.500  1.715583  133.85  24.074  2.145171
  8053.311  8053.300  0.500  1.711612  133.596  24.124  2.154927
  8059.678  8059.670  0.500  1.707171  133.403  24.1965  2.171507
  8066.129  8066.120  0.500  1.702407  133.251  24.2842  2.190431
  8072.671  8072.650  0.500  1.698201  133.193  24.3759  2.212837
  8079.263  8079.250  0.500  1.694250  127.369  23.4024  2.140018
  8085.933  8085.920  0.500  1.690008  132.778  24.5  2.252588
  8092.688  8092.670  0.500  1.685644  132.589  24.5722  2.266438
  8099.510  8099.500  0.500  1.681549  132.485  24.6536  2.278061
  8106.429  8106.410  0.500  1.676904  132.26  24.7263  2.291983
  8113.405  8113.390  0.500  1.672198  132.042  24.802  2.310568
  8120.461  8120.450  0.500  1.667387  131.822  24.88  2.332694
  8127.597  8127.580  0.500  1.662794  131.573  24.9474  2.350824
  8134.806  8134.790  0.500  1.658882  131.337  25.0003  2.365447
  8142.102  8142.080  0.500  1.654728  131.083  25.0557  2.378366
  8149.449  8149.440  0.500  1.651057  130.883  25.1094  2.395694
  8156.897  8156.880  0.500  1.646766  130.611  25.165  2.411492
  8164.405  8164.390  0.500  1.642015  130.361  25.2365  2.426319
  8171.996  8171.980  0.500  1.637297  130.084  25.3021  2.440477
  8179.662  8179.650  0.500  1.632267  129.797  25.3735  2.456223
  8187.415  8187.390  0.500  1.626795  129.535  25.4612  2.477331
  8195.220  8195.210  0.500  1.621806  129.252  25.5326  2.498116
  8203.132  8203.110  0.500  1.617090  128.99  25.6013  2.520486
  8211.101  8211.080  0.500  1.612329  128.711  25.668  2.541659
  8219.156  8219.130  0.500  1.607510  128.395  25.7286  2.563615
  8227.264  8227.250  0.500  1.602646  128.109  25.7963  2.586178
  8235.496  8235.450  0.500  1.597642  127.793  25.862  2.605260
  8243.780  8243.730  0.500  1.592403  127.507  25.9395  2.621422
  8252.082  8252.080  0.500  1.587209  127.181  26.0079  2.635710
  8260.500  8260.510  0.500  1.581865  126.891  26.0876  2.656741
  8268.988  8269.010  0.500  1.576626  126.537  26.1517  2.677763
  8277.603  8277.590  0.500  1.571704  125.826  26.133  2.693232
  8286.305  8286.250  0.500  1.566529  125.842  26.2718  2.723964
  8295.046  8294.990  0.500  1.561484  125.465  26.3255  2.744538
  8303.782  8303.800  0.500  1.556452  125.116  26.3848  2.768066
  8312.656  8312.680  0.500  1.551115  124.526  26.401  2.786920
  8321.626  8321.640  0.500  1.545554  122.791  26.1783  2.775526
  8330.732  8330.680  0.500  1.540015  123.96  26.5742  2.826486
  8335.261  8335.230  0.500  1.537310  123.597  26.5681  2.829891