Folder: webxdiviewer/xdidata/Er (part 3)

File: Eu-L1-Eu2O3-c.xdi
# XDI/1.0 BlueSky/1.10.0 BMM/2023-1.0-py310-tiled
# Beamline.name: BMM (06BM) -- Beamline for Materials Measurement (NIST)
# Beamline.xray_source: NSLS-II three-pole wiggler
# Beamline.collimation: paraboloid mirror, 5 nm Rh on 30 nm Pt
# Beamline.focusing: not in use
# Beamline.harmonic_rejection: flat mirror, Pt stripe, pitch = 7.0 mrad relative to beam
# Beamline.software: Bluesky 1.10.0, Ophyd 1.7.0, DataBroker 2.0.0b13, Python 3.10.8, 2023-1.0-py310-tiled
# Detector.I0: 10 cm N2
# Detector.I1: 25 cm N2
# Detector.I2: 25 cm N2
# Element.symbol: Eu
# Element.edge: L1
# Element.reference: Eu
# Element.reference_material: Eu2O3
# Facility.name: NSLS-II
# Facility.energy: 3.0
# Facility.current: 400.2
# Facility.mode: top-off
# Facility.GUP: 123456
# Facility.SAF: 301027
# Facility.cycle: 2023-2
# Mono.name: Si(111)
# Mono.d_spacing: 3.13519
# Mono.encoder_resolution: 0.0000050 deg/ct
# Mono.angle_offset: 16.0754 deg
# Mono.scan_mode: pseudo channel cut
# Mono.scan_type: step
# Mono.direction: forward in energy
# Sample.name: cubic Eu2O3
# Sample.prep: Powder in PEG pellet
# Sample.x: 123.848 mm
# Sample.y: 114.690 mm
# Sample.SDD_position: 205.000 mm
# Scan.experimenters: Bruce Ravel
# Scan.edge_energy: 8052.0
# Scan.start_time: 2023-05-08T21:22:42
# Scan.end_time: 2023-05-08T21:28:36
# Scan.transient_id: 75625
# Scan.uid: a7751e2c-4dba-456b-b808-8ddd3bc96d79
# Scan.plot_hint: ln(I0/It)  --  ln($5/$6)
# Column.1: energy eV
# Column.2: requested_energy eV
# Column.3: measurement_time seconds
# Column.4: xmu
# Column.5: I0 nA
# Column.6: It nA
# Column.7: Ir nA
# ///////////
# sample courtesy Martin Stennett, University of Sheffield
# -----------
# energy  requested_energy  measurement_time  xmu  I0  It  Ir
  7852.001  7852.000  0.500  2.267258  135.669  14.0548  3.760596
  7872.019  7872.000  0.500  2.255346  135.264  14.1807  3.819720
  7892.027  7892.000  0.500  2.235432  134.885  14.4254  3.921616
  7912.019  7912.000  0.500  2.217899  134.482  14.6367  4.012656
  7932.017  7932.000  0.500  2.201865  134.015  14.8216  4.095883
  7951.979  7952.000  0.500  2.187663  133.594  14.9864  4.170264
  7972.018  7972.000  0.500  2.169155  133.206  15.2219  4.275243
  7992.025  7992.000  0.500  2.155137  132.794  15.3892  4.354590
  8012.020  8012.000  0.500  2.138851  132.317  15.5857  4.445007
  8023.973  8024.000  0.500  2.129794  132.336  15.7297  4.507069
  8027.979  8028.000  0.500  2.126978  132.243  15.7629  4.523230
  8032.404  8032.000  0.500  2.124312  132.112  15.7894  4.536229
  8036.106  8036.000  0.500  2.122357  132.046  15.8124  4.549413
  8040.009  8040.000  0.500  2.120639  131.892  15.8211  4.554963
  8042.482  8042.500  0.500  2.120573  131.803  15.8114  4.554909
  8043.484  8043.500  0.500  2.120678  131.763  15.805  4.552596
  8044.489  8044.500  0.500  2.120747  131.788  15.8069  4.553349
  8045.488  8045.500  0.500  2.121122  131.752  15.7966  4.551663
  8046.485  8046.500  0.500  2.121639  131.732  15.7861  4.548621
  8047.485  8047.500  0.500  2.122381  131.695  15.77  4.543487
  8048.483  8048.500  0.500  2.124121  131.643  15.7363  4.533214
  8049.486  8049.500  0.500  2.125594  131.595  15.7075  4.521484
  8050.490  8050.500  0.500  2.128350  131.562  15.6603  4.505947
  8051.494  8051.500  0.500  2.131727  131.52  15.6025  4.484916
  8052.495  8052.500  0.500  2.137056  131.496  15.5168  4.455418
  8053.491  8053.500  0.500  2.144417  131.404  15.3922  4.408841
  8054.487  8054.500  0.500  2.154949  131.346  15.2242  4.346857
  8055.492  8055.500  0.500  2.166515  131.254  15.0386  4.278469
  8056.495  8056.500  0.500  2.177331  130.996  14.8475  4.211346
  8057.494  8057.500  0.500  2.186668  130.438  14.6469  4.141946
  8058.489  8058.500  0.500  2.196060  125.989  14.0151  3.952753
  8059.489  8059.500  0.500  2.206514  130.977  14.4184  4.054312
  8060.501  8060.500  0.500  2.218072  131.914  14.3547  4.023268
  8061.502  8061.500  0.500  2.231124  131.937  14.171  3.954807
  8062.500  8062.500  0.500  2.246747  131.869  13.9441  3.872559
  8063.499  8063.500  0.500  2.264595  131.819  13.6923  3.781903
  8064.495  8064.500  0.500  2.284193  131.743  13.4189  3.681817
  8065.491  8065.500  0.500  2.305042  131.704  13.1381  3.582277
  8066.496  8066.500  0.500  2.323441  131.519  12.8805  3.490799
  8067.501  8067.500  0.500  2.337710  131.539  12.6999  3.426254
  8068.499  8068.500  0.500  2.347111  131.304  12.5586  3.378738
  8069.499  8069.500  0.500  2.351277  129.215  12.3074  3.305597
  8070.491  8070.500  0.500  2.352257  127.068  12.091  3.246232
  8071.494  8071.500  0.500  2.351115  131.493  12.5264  3.365042
  8072.498  8072.500  0.500  2.349306  131.591  12.5584  3.375867
  8073.499  8073.500  0.500  2.347026  131.557  12.5839  3.386415
  8074.498  8074.500  0.500  2.345110  131.514  12.6039  3.395078
  8075.494  8075.500  0.500  2.343444  131.43  12.6168  3.402104
  8076.498  8076.500  0.500  2.341169  131.333  12.6362  3.411538
  8077.995  8077.990  0.500  2.337109  130.904  12.6462  3.420195
  8080.017  8080.010  0.500  2.329525  128.924  12.5498  3.403799
  8082.130  8082.120  0.500  2.317934  131.37  12.9369  3.523100
  8084.308  8084.300  0.500  2.303274  131.293  13.1202  3.589704
  8086.565  8086.560  0.500  2.288087  131.106  13.302  3.657174
  8088.903  8088.890  0.500  2.275283  130.929  13.4553  3.715976
  8091.306  8091.300  0.500  2.266077  125.536  13.0204  3.607031
  8093.786  8093.780  0.500  2.259546  131.292  13.7066  3.806549
  8096.358  8096.340  0.500  2.255378  131.141  13.7481  3.824505
  8098.985  8098.980  0.500  2.254812  131.073  13.7487  3.826434
  8101.717  8101.700  0.500  2.256694  130.978  13.7129  3.815306
  8104.502  8104.490  0.500  2.260071  130.881  13.6565  3.796157
  8107.363  8107.350  0.500  2.263916  130.808  13.5965  3.775098
  8110.306  8110.290  0.500  2.268003  130.747  13.5348  3.755464
  8113.320  8113.310  0.500  2.272178  130.63  13.4663  3.732953
  8116.429  8116.410  0.500  2.275628  130.548  13.4115  3.715000
  8119.594  8119.580  0.500  2.277249  130.473  13.3821  3.707803
  8122.835  8122.830  0.500  2.276104  130.442  13.3942  3.714273
  8126.164  8126.150  0.500  2.271714  130.323  13.4409  3.735402
  8129.563  8129.550  0.500  2.264393  130.242  13.5312  3.770127
  8133.036  8133.030  0.500  2.255599  130.199  13.6463  3.814160
  8136.586  8136.580  0.500  2.248101  130.077  13.7361  3.850386
  8140.227  8140.210  0.500  2.242724  129.941  13.7957  3.874742
  8143.928  8143.910  0.500  2.238986  129.892  13.8421  3.894573
  8147.703  8147.690  0.500  2.236725  129.809  13.8646  3.906071
  8151.556  8151.550  0.500  2.233837  129.652  13.8879  3.918967
  8155.496  8155.480  0.500  2.229653  129.502  13.9299  3.937312
  8159.502  8159.490  0.500  2.224776  129.48  13.9957  3.963343
  8163.595  8163.580  0.500  2.219569  129.43  14.0633  3.991401
  8167.758  8167.740  0.500  2.214792  129.283  14.1146  4.012757
  8171.994  8171.980  0.500  2.211489  129.204  14.1526  4.029964
  8176.309  8176.290  0.500  2.208907  129.076  14.1752  4.041791
  8180.694  8180.680  0.500  2.207554  128.975  14.1833  4.049856
  8185.162  8185.150  0.500  2.206999  128.878  14.1805  4.051286
  8189.709  8189.690  0.500  2.204968  128.759  14.1962  4.061321
[...]
  8218.568  8218.550  0.500  2.174230  128.068  14.5608  4.221426
  8223.638  8223.620  0.500  2.170730  127.943  14.5976  4.239331
  8228.795  8228.770  0.500  2.168030  127.809  14.6217  4.253374
  8234.014  8234.000  0.500  2.165042  127.667  14.6491  4.268510
  8239.319  8239.310  0.500  2.161656  127.546  14.6849  4.287637
  8244.706  8244.690  0.500  2.157051  127.406  14.7365  4.311357
  8250.168  8250.150  0.500  2.152033  127.227  14.7898  4.337031
  8255.699  8255.680  0.500  2.145938  127.091  14.8644  4.368795
  8261.301  8261.290  0.500  2.140819  126.961  14.9254  4.397237
  8266.982  8266.970  0.500  2.136387  126.822  14.9753  4.422293
  8272.758  8272.740  0.500  2.132385  126.664  15.0165  4.442543
  8278.590  8278.570  0.500  2.128856  125.03  14.8752  4.408638
  8284.504  8284.490  0.500  2.125145  126.303  15.0825  4.478832
  8290.495  8290.480  0.500  2.120469  126.193  15.1401  4.507059
  8296.571  8296.550  0.500  2.115029  125.982  15.1972  4.533576
  8302.709  8302.690  0.500  2.109771  125.826  15.2583  4.563923
  8308.934  8308.910  0.500  2.104063  125.674  15.3271  4.596334
  8315.219  8315.200  0.500  2.098759  125.453  15.3816  4.624329
  8321.587  8321.570  0.500  2.093491  125.235  15.436  4.651305
  8328.038  8328.020  0.500  2.088266  125.048  15.4937  4.679850
  8334.567  8334.550  0.500  2.083325  124.73  15.5308  4.702675
  8341.163  8341.150  0.500  2.078479  124.489  15.5762  4.727579
  8347.839  8347.820  0.500  2.073238  124.171  15.6179  4.750789
  8354.573  8354.570  0.500  2.067537  123.747  15.6537  4.773902
  8361.412  8361.400  0.500  2.061849  123.639  15.7291  4.808325
  8368.325  8368.310  0.500  2.056018  123.498  15.8031  4.844965
  8375.299  8375.290  0.500  2.050402  123.347  15.8726  4.879542
  8382.365  8382.350  0.500  2.045286  123.102  15.9224  4.906085
  8389.489  8389.480  0.500  2.040185  122.79  15.9632  4.931258
  8396.705  8396.690  0.500  2.035103  122.584  16.0177  4.960738
  8403.984  8403.980  0.500  2.029905  123.018  16.1582  5.017079
  8411.356  8411.340  0.500  2.024305  122.839  16.2253  5.049901
  8418.795  8418.780  0.500  2.018391  122.63  16.2937  5.084937
  8426.306  8426.290  0.500  2.012439  122.42  16.3629  5.121792
  8433.892  8433.880  0.500  2.006220  122.167  16.431  5.157009
  8441.565  8441.550  0.500  2.000044  122.033  16.5146  5.198553
  8449.308  8449.290  0.500  1.993527  121.723  16.5805  5.234530
  8457.121  8457.110  0.500  1.987459  121.484  16.6486  5.269350
  8465.028  8465.010  0.500  1.981521  121.211  16.7101  5.304502
  8473.003  8472.980  0.500  1.975445  120.965  16.7778  5.340635
  8481.050  8481.030  0.500  1.969961  120.733  16.8376  5.374405
  8489.176  8489.150  0.500  1.964542  120.44  16.8881  5.405532
  8497.372  8497.350  0.500  1.958252  120.162  16.9555  5.442969
  8505.655  8505.630  0.500  1.951865  119.886  17.0249  5.481602
  8514.005  8513.980  0.500  1.945642  119.592  17.0892  5.517354
  8522.434  8522.410  0.500  1.939419  119.132  17.1297  5.547506
  8530.924  8530.910  0.500  1.933221  103.235  14.9361  4.851783
  8539.515  8539.490  0.500  1.926518  119.025  17.3366  5.646941
  8548.178  8548.150  0.500  1.919856  118.671  17.4004  5.684802
  8556.910  8556.890  0.500  1.913744  118.346  17.4593  5.720321
  8565.719  8565.700  0.500  1.907637  118.088  17.5279  5.760657
  8574.601  8574.580  0.500  1.901216  117.754  17.591  5.796807
  8583.584  8583.540  0.500  1.894557  117.414  17.6573  5.837206
  8592.606  8592.580  0.500  1.887390  105.729  16.0145  5.311069
  8597.152  8597.130  0.500  1.883934  116.116  17.6485  5.861883