Folder: webxdiviewer/xdidata/Er

Note: xdidata/README.md
# bmm-standards
A pretty webpage for BMM's collection of common XAFS materials

[BMM's common materials collection](./BMM-standards.html)

Plotting of the data will happen soon.

Periodic table adapted from [some guy named Daniel](https://codepen.io/gooseofmusic/pen/PjKdNQ)

[This](https://www.coderstool.com/scss-to-css) is a helpful tool for
dealing with Sassy CSS.

File: Er-L1-Er2O3.xdi
# XDI/1.0 BlueSky/1.10.0 BMM/2023-1.0-py310-tiled
# Beamline.name: BMM (06BM) -- Beamline for Materials Measurement (NIST)
# Beamline.xray_source: NSLS-II three-pole wiggler
# Beamline.collimation: paraboloid mirror, 5 nm Rh on 30 nm Pt
# Beamline.focusing: not in use
# Beamline.harmonic_rejection: flat mirror, Pt stripe, pitch = 7.0 mrad relative to beam
# Beamline.software: Bluesky 1.10.0, Ophyd 1.7.0, DataBroker 2.0.0b13, Python 3.10.8, 2023-1.0-py310-tiled
# Detector.I0: 10 cm N2
# Detector.I1: 25 cm N2
# Detector.I2: 25 cm N2
# Element.symbol: Er
# Element.edge: L1
# Element.reference: Er
# Element.reference_material: Er2O3
# Facility.name: NSLS-II
# Facility.energy: 3.0
# Facility.current: 400.0
# Facility.mode: top-off
# Facility.GUP: 123456
# Facility.SAF: 301027
# Facility.cycle: 2023-2
# Mono.name: Si(111)
# Mono.d_spacing: 3.13519
# Mono.encoder_resolution: 0.0000050 deg/ct
# Mono.angle_offset: 16.0754 deg
# Mono.scan_mode: pseudo channel cut
# Mono.scan_type: step
# Mono.direction: forward in energy
# Sample.name: Er2O3
# Sample.prep: Powder in PEG pellet
# Sample.x: 123.848 mm
# Sample.y: 114.690 mm
# Sample.SDD_position: 205.000 mm
# Scan.experimenters: Bruce Ravel
# Scan.edge_energy: 9751.3
# Scan.start_time: 2023-05-08T22:39:03
# Scan.end_time: 2023-05-08T22:44:48
# Scan.transient_id: 75685
# Scan.uid: 9cdaaa9b-47cd-4f23-8ab9-6170527e014b
# Scan.plot_hint: ln(I0/It)  --  ln($5/$6)
# Column.1: energy eV
# Column.2: requested_energy eV
# Column.3: measurement_time seconds
# Column.4: xmu
# Column.5: I0 nA
# Column.6: It nA
# Column.7: Ir nA
# ///////////
# sample courtesy Martin Stennett, University of Sheffield
# -----------
# energy  requested_energy  measurement_time  xmu  I0  It  Ir
  9551.344  9551.300  0.500  1.727074  104.748  18.6246  7.212859
  9571.398  9571.300  0.500  1.714217  104.369  18.7973  7.315535
  9591.331  9591.300  0.500  1.704927  103.989  18.9037  7.388346
  9611.325  9611.300  0.500  1.693090  103.602  19.0575  7.485523
  9631.340  9631.300  0.500  1.682562  103.205  19.1855  7.568520
  9651.316  9651.300  0.500  1.673942  102.659  19.2492  7.622236
  9671.313  9671.300  0.500  1.664477  102.256  19.356  7.693697
  9691.321  9691.300  0.500  1.653108  101.859  19.5013  7.788486
  9711.312  9711.300  0.500  1.642146  101.427  19.6325  7.877551
  9723.287  9723.300  0.500  1.638167  101.246  19.6757  7.908054
  9727.276  9727.300  0.500  1.637498  101.144  19.6691  7.909727
  9731.276  9731.300  0.500  1.636857  101.075  19.6683  7.911675
  9735.276  9735.300  0.500  1.636597  100.99  19.6568  7.910009
  9739.275  9739.300  0.500  1.636358  100.918  19.6476  7.907369
  9741.760  9741.800  0.500  1.636532  100.865  19.6339  7.901945
  9742.769  9742.800  0.500  1.636774  100.833  19.6228  7.897834
  9743.774  9743.800  0.500  1.637101  100.814  19.6126  7.891593
  9744.779  9744.800  0.500  1.637878  100.791  19.5931  7.884096
  9745.777  9745.800  0.500  1.638552  100.766  19.5749  7.874672
  9746.774  9746.800  0.500  1.639399  100.733  19.552  7.863427
  9747.780  9747.800  0.500  1.640576  100.73  19.5283  7.850183
  9748.774  9748.800  0.500  1.642510  100.707  19.4862  7.828070
  9749.776  9749.800  0.500  1.645534  100.673  19.4207  7.795757
  9750.787  9750.800  0.500  1.649932  100.657  19.3324  7.748267
  9751.782  9751.800  0.500  1.656366  100.627  19.2028  7.679249
  9752.797  9752.800  0.500  1.664752  100.606  19.0385  7.591284
  9753.800  9753.800  0.500  1.673901  100.578  18.8598  7.498060
  9754.779  9754.800  0.500  1.682033  100.562  18.7041  7.414155
  9755.782  9755.800  0.500  1.689985  100.537  18.5513  7.335279
  9756.794  9756.800  0.500  1.698681  100.521  18.3877  7.250081
  9757.794  9757.800  0.500  1.707385  100.493  18.2234  7.163893
  9758.794  9758.800  0.500  1.716177  100.472  18.06  7.078547
  9759.798  9759.800  0.500  1.725547  100.447  17.8871  6.987413
  9760.795  9760.800  0.500  1.735935  100.429  17.6991  6.888967
  9761.791  9761.800  0.500  1.748241  100.403  17.4781  6.775054
  9762.800  9762.800  0.500  1.762769  100.38  17.2221  6.645318
  9763.797  9763.800  0.500  1.778096  100.359  16.9567  6.508126
  9764.807  9764.800  0.500  1.793225  100.332  16.6976  6.375532
  9765.800  9765.800  0.500  1.804958  100.305  16.4983  6.275371
  9766.790  9766.800  0.500  1.810836  100.704  16.4669  6.251405
  9767.792  9767.800  0.500  1.811219  100.679  16.4564  6.245915
  9768.806  9768.800  0.500  1.808545  100.631  16.4927  6.265798
  9769.804  9769.800  0.500  1.805187  100.609  16.5445  6.293140
  9770.807  9770.800  0.500  1.803009  100.546  16.5703  6.306684
  9771.797  9771.800  0.500  1.802865  100.488  16.5631  6.306332
  9772.800  9772.800  0.500  1.803740  100.21  16.5028  6.279596
  9773.795  9773.800  0.500  1.805378  98.9793  16.2734  6.190333
  9774.799  9774.800  0.500  1.806145  100.174  16.4572  6.257497
  9775.802  9775.800  0.500  1.805877  100.542  16.5221  6.284347
  9777.306  9777.290  0.500  1.803823  100.504  16.5498  6.299258
  9779.315  9779.310  0.500  1.797045  100.436  16.651  6.352279
  9781.431  9781.420  0.500  1.786458  100.322  16.8092  6.435519
  9783.620  9783.600  0.500  1.774307  98.7871  16.7544  6.441867
  9785.867  9785.860  0.500  1.762763  100.364  17.2194  6.647804
  9788.210  9788.190  0.500  1.752714  100.268  17.3767  6.731979
  9790.613  9790.600  0.500  1.746170  100.075  17.4572  6.780030
  9793.091  9793.080  0.500  1.743130  99.6725  17.4399  6.782478
  9795.654  9795.640  0.500  1.741690  100.162  17.5508  6.827880
  9798.280  9798.280  0.500  1.741868  100.093  17.5356  6.822418
  9801.020  9801.000  0.500  1.742935  99.9281  17.488  6.801648
  9803.786  9803.790  0.500  1.744499  99.68  17.4173  6.772596
  9806.666  9806.650  0.500  1.746264  99.9537  17.4344  6.774717
  9809.593  9809.590  0.500  1.749778  99.8923  17.3625  6.740380
  9812.619  9812.610  0.500  1.753997  99.8199  17.2769  6.698886
  9815.712  9815.710  0.500  1.758488  99.7458  17.1867  6.653843
  9818.895  9818.880  0.500  1.763519  99.6848  17.09  6.605371
  9822.139  9822.130  0.500  1.765968  99.4958  17.0159  6.571475
  9825.464  9825.450  0.500  1.765162  99.534  17.0361  6.583772
  9828.858  9828.850  0.500  1.760868  98.9377  17.007  6.580547
  9832.330  9832.330  0.500  1.753519  99.3764  17.2084  6.677050
  9835.897  9835.880  0.500  1.745112  98.9376  17.277  6.722523
  9839.524  9839.510  0.500  1.739314  99.2251  17.428  6.796980
  9843.213  9843.210  0.500  1.736093  98.5991  17.3739  6.783010
  9846.993  9846.990  0.500  1.734468  99.0585  17.4832  6.832375
  9850.864  9850.850  0.500  1.733365  98.9917  17.4907  6.837535
  9854.797  9854.780  0.500  1.730817  98.9205  17.5227  6.857788
  9858.796  9858.790  0.500  1.726747  98.8357  17.5791  6.889442
  9862.900  9862.880  0.500  1.722871  98.7619  17.6342  6.921023
  9867.057  9867.040  0.500  1.719435  98.6831  17.6808  6.948849
  9871.294  9871.280  0.500  1.716130  98.5974  17.7239  6.976185
  9875.598  9875.590  0.500  1.713919  98.5106  17.7475  6.990147
  9879.985  9879.980  0.500  1.713396  98.212  17.703  6.975249
  9884.466  9884.450  0.500  1.714118  98.1745  17.6834  6.967374
  9888.997  9888.990  0.500  1.716208  98.1913  17.6495  6.951178
  9893.617  9893.610  0.500  1.716774  98.0832  17.6201  6.938165
[...]
  9922.929  9922.920  0.500  1.692837  97.4497  17.9304  7.125788
  9928.068  9928.070  0.500  1.688636  97.292  17.9768  7.156370
  9933.305  9933.300  0.500  1.687333  95.9036  17.7433  7.066691
  9938.626  9938.610  0.500  1.685643  97.1985  18.0133  7.179993
  9944.012  9943.990  0.500  1.683659  97.0591  18.0232  7.190657
  9949.468  9949.450  0.500  1.680644  96.9252  18.0527  7.211754
  9954.990  9954.980  0.500  1.677745  96.236  17.9764  7.190311
  9960.596  9960.590  0.500  1.674193  96.6424  18.1165  7.256298
  9966.294  9966.270  0.500  1.670047  96.2931  18.126  7.269957
  9972.055  9972.040  0.500  1.666519  96.494  18.228  7.322413
  9977.900  9977.870  0.500  1.664146  96.3434  18.2428  7.335249
  9983.813  9983.790  0.500  1.662975  91.9816  17.4373  7.015876
  9989.814  9989.780  0.500  1.661440  96.0608  18.2386  7.343378
  9995.871  9995.850  0.500  1.659561  95.8153  18.2262  7.345231
  10002.004  10001.990  0.500  1.656624  95.8812  18.2924  7.380830
  10008.223  10008.210  0.500  1.653291  95.7387  18.3262  7.404942
  10014.520  10014.500  0.500  1.649205  93.3638  17.9448  7.262213
  10020.907  10020.870  0.500  1.644457  95.402  18.4238  7.469666
  10027.354  10027.320  0.500  1.639975  95.2355  18.4743  7.503310
  10033.884  10033.850  0.500  1.635721  94.8786  18.4835  7.518548
  10040.484  10040.450  0.500  1.631762  95.085  18.5972  7.578852
  10047.145  10047.120  0.500  1.628498  94.9171  18.625  7.600479
  10053.898  10053.870  0.500  1.625734  94.7615  18.646  7.616032
  10060.731  10060.700  0.500  1.622662  94.5986  18.6712  7.637367
  10067.647  10067.610  0.500  1.619180  94.4515  18.7072  7.662294
  10074.622  10074.590  0.500  1.615428  94.3022  18.7478  7.690262
  10081.677  10081.650  0.500  1.611934  94.1457  18.7822  7.715665
  10088.803  10088.780  0.500  1.609048  91.6233  18.3318  7.540108
  10096.020  10095.990  0.500  1.605801  93.7956  18.8275  7.754932
  10103.308  10103.280  0.500  1.602345  93.6702  18.8674  7.781510
  10110.670  10110.640  0.500  1.598397  93.52  18.9117  7.814343
  10118.117  10118.080  0.500  1.594579  93.347  18.9489  7.840605
  10125.625  10125.590  0.500  1.591008  93.1855  18.9838  7.866031
  10133.202  10133.180  0.500  1.587164  93.0328  19.0257  7.894368
  10140.888  10140.850  0.500  1.583267  92.8534  19.0631  7.922989
  10148.622  10148.590  0.500  1.578849  92.6912  19.1141  7.957377
  10156.435  10156.410  0.500  1.574448  92.5074  19.1603  7.992328
  10164.340  10164.310  0.500  1.569907  92.3457  19.2139  8.030299
  10172.317  10172.280  0.500  1.565629  92.2318  19.2724  8.067373
  10180.369  10180.330  0.500  1.561823  92.275  19.355  8.114868
  10188.483  10188.450  0.500  1.557773  92.1368  19.4044  8.148056
  10196.683  10196.650  0.500  1.554307  91.981  19.4389  8.174621
  10204.950  10204.930  0.500  1.551064  91.7909  19.4617  8.196048
  10213.317  10213.280  0.500  1.547543  91.5967  19.4891  8.219242
  10221.743  10221.710  0.500  1.543520  91.4172  19.5293  8.250339
  10230.238  10230.210  0.500  1.539083  91.2214  19.5741  8.282635
  10238.820  10238.790  0.500  1.534377  90.6832  19.5504  8.289399
  10247.475  10247.450  0.500  1.529819  90.8517  19.6762  8.358909
  10256.214  10256.190  0.500  1.525051  90.6525  19.7269  8.394214
  10265.018  10265.000  0.500  1.520797  90.4591  19.7687  8.426076
  10273.901  10273.880  0.500  1.516454  90.2311  19.8047  8.456419
  10282.860  10282.840  0.500  1.512557  90.0673  19.8459  8.487966
  10291.913  10291.880  0.500  1.508981  89.8657  19.8725  8.512749
  10296.466  10296.430  0.500  1.506862  89.773  19.8941  8.528988

File: Er-L1-Er2TiO5.xdi
# XDI/1.0 BlueSky/1.10.0 BMM/2023-1.0-py310-tiled
# Beamline.name: BMM (06BM) -- Beamline for Materials Measurement (NIST)
# Beamline.xray_source: NSLS-II three-pole wiggler
# Beamline.collimation: paraboloid mirror, 5 nm Rh on 30 nm Pt
# Beamline.focusing: not in use
# Beamline.harmonic_rejection: flat mirror, Pt stripe, pitch = 7.0 mrad relative to beam
# Beamline.software: Bluesky 1.10.0, Ophyd 1.7.0, DataBroker 2.0.0b13, Python 3.10.8, 2023-1.0-py310-tiled
# Detector.I0: 10 cm N2
# Detector.I1: 25 cm N2
# Detector.I2: 25 cm N2
# Element.symbol: Er
# Element.edge: L1
# Element.reference: Er
# Element.reference_material: Er2O3
# Facility.name: NSLS-II
# Facility.energy: 3.0
# Facility.current: 400.3
# Facility.mode: top-off
# Facility.GUP: 123456
# Facility.SAF: 301027
# Facility.cycle: 2023-2
# Mono.name: Si(111)
# Mono.d_spacing: 3.13519
# Mono.encoder_resolution: 0.0000050 deg/ct
# Mono.angle_offset: 16.0754 deg
# Mono.scan_mode: pseudo channel cut
# Mono.scan_type: step
# Mono.direction: forward in energy
# Sample.name: Er2TiO5
# Sample.prep: Powder in PEG pellet
# Sample.x: 149.848 mm
# Sample.y: 114.690 mm
# Sample.SDD_position: 205.000 mm
# Scan.experimenters: Bruce Ravel
# Scan.edge_energy: 9751.3
# Scan.start_time: 2023-05-08T22:45:27
# Scan.end_time: 2023-05-08T22:51:12
# Scan.transient_id: 75690
# Scan.uid: a526b6fd-e22a-4eb3-b1b8-57da77ac87cf
# Scan.plot_hint: ln(I0/It)  --  ln($5/$6)
# Column.1: energy eV
# Column.2: requested_energy eV
# Column.3: measurement_time seconds
# Column.4: xmu
# Column.5: I0 nA
# Column.6: It nA
# Column.7: Ir nA
# ///////////
# sample courtesy Martin Stennett, University of Sheffield
# -----------
# energy  requested_energy  measurement_time  xmu  I0  It  Ir
  9551.289  9551.300  0.500  0.557433  104.855  60.0482  23.2167
  9571.334  9571.300  0.500  0.551199  104.458  60.1951  23.3943
  9591.378  9591.300  0.500  0.545442  104.039  60.2994  23.5297
  9611.329  9611.300  0.500  0.539582  103.597  60.3965  23.6857
  9631.328  9631.300  0.500  0.534023  103.174  60.485  23.8227
  9651.344  9651.300  0.500  0.528495  102.756  60.5736  23.9498
  9671.341  9671.300  0.500  0.541957  102.34  59.5216  23.6304
  9691.329  9691.300  0.500  0.525421  101.947  60.2816  24.045
  9711.332  9711.300  0.500  0.521876  101.495  60.2278  24.1331
  9723.279  9723.300  0.500  0.519538  101.29  60.2466  24.1825
  9727.280  9727.300  0.500  0.518000  101.177  60.272  24.2016
  9731.293  9731.300  0.500  0.516678  101.116  60.3158  24.2299
  9735.334  9735.300  0.500  0.515593  101.014  60.32  24.2369
  9739.304  9739.300  0.500  0.515080  100.93  60.3007  24.2358
  9741.789  9741.800  0.500  0.514751  100.89  60.2971  24.2346
  9742.798  9742.800  0.500  0.514488  100.867  60.2988  24.2344
  9743.791  9743.800  0.500  0.514373  100.85  60.2958  24.2289
  9744.792  9744.800  0.500  0.514426  100.81  60.2686  24.2176
  9745.789  9745.800  0.500  0.514667  100.798  60.247  24.2033
  9746.778  9746.800  0.500  0.514632  100.769  60.232  24.1898
  9747.788  9747.800  0.500  0.514953  100.753  60.2027  24.1706
  9748.791  9748.800  0.500  0.515507  100.719  60.1491  24.1335
  9749.797  9749.800  0.500  0.516211  100.713  60.1034  24.0917
  9750.804  9750.800  0.500  0.517365  100.691  60.0208  24.0217
  9751.790  9751.800  0.500  0.519180  100.677  59.9035  23.9248
  9752.797  9752.800  0.500  0.521613  100.645  59.7388  23.7889
  9753.792  9753.800  0.500  0.524496  100.622  59.5537  23.6413
  9754.787  9754.800  0.500  0.527167  100.59  59.3759  23.5068
  9755.790  9755.800  0.500  0.529716  100.574  59.215  23.3808
  9756.790  9756.800  0.500  0.532216  100.553  59.0549  23.249
  9757.806  9757.800  0.500  0.534837  100.533  58.8886  23.1147
  9758.802  9758.800  0.500  0.537579  100.495  58.7054  22.9739
  9759.794  9759.800  0.500  0.540592  100.487  58.5241  22.8291
  9760.799  9760.800  0.500  0.544277  100.469  58.2982  22.6611
  9761.795  9761.800  0.500  0.548141  100.441  58.0574  22.4745
  9762.792  9762.800  0.500  0.552800  100.412  57.7705  22.2552
  9763.797  9763.800  0.500  0.557635  100.408  57.4896  22.0311
  9764.791  9764.800  0.500  0.562819  100.379  57.1761  21.7983
  9765.800  9765.800  0.500  0.567376  100.356  56.9031  21.6085
  9766.806  9766.800  0.500  0.569967  100.328  56.7399  21.4985
  9767.800  9767.800  0.500  0.570832  100.314  56.6827  21.4767
  9768.798  9768.800  0.500  0.570010  100.285  56.7134  21.5096
  9769.788  9769.800  0.500  0.568606  100.259  56.778  21.5576
  9770.795  9770.800  0.500  0.567090  100.192  56.8263  21.594
  9771.801  9771.800  0.500  0.565744  100.133  56.8692  21.6123
  9772.800  9772.800  0.500  0.564613  100.29  57.0229  21.6646
  9773.808  9773.800  0.500  0.563749  99.0194  56.3491  21.3994
  9774.803  9774.800  0.500  0.562733  100.195  57.076  21.6678
  9775.802  9775.800  0.500  0.561583  100.6  57.3729  21.7806
  9777.290  9777.290  0.500  0.560410  100.566  57.4206  21.8168
  9779.310  9779.310  0.500  0.558649  100.492  57.4798  21.8927
  9781.436  9781.420  0.500  0.557080  100.389  57.5108  21.9871
  9783.607  9783.600  0.500  0.554430  98.8646  56.7878  21.8008
  9785.867  9785.860  0.500  0.551199  100.406  57.8598  22.3006
  9788.202  9788.190  0.500  0.548114  100.331  57.9951  22.4355
  9790.613  9790.600  0.500  0.545637  100.153  58.0359  22.5018
  9793.078  9793.080  0.500  0.543810  99.679  57.8668  22.4643
  9795.649  9795.640  0.500  0.542816  100.231  58.2451  22.6233
  9798.288  9798.280  0.500  0.542718  100.149  58.2034  22.6071
  9801.003  9801.000  0.500  0.543157  99.9895  58.0851  22.5561
  9803.798  9803.790  0.500  0.543824  99.6792  57.8661  22.4618
  9806.658  9806.650  0.500  0.544687  99.9902  57.9966  22.5008
  9809.602  9809.590  0.500  0.545309  99.9125  57.9155  22.4479
  9812.614  9812.610  0.500  0.545656  99.8349  57.8505  22.3905
  9815.725  9815.710  0.500  0.545510  99.7569  57.8137  22.3433
  9818.887  9818.880  0.500  0.545083  99.6852  57.7969  22.3034
  9822.143  9822.130  0.500  0.544136  99.4863  57.7362  22.2603
  9825.452  9825.450  0.500  0.543157  99.5307  57.8185  22.3018
  9828.858  9828.850  0.500  0.541972  98.9136  57.5282  22.2229
  9832.343  9832.330  0.500  0.540590  99.3635  57.8698  22.4176
  9835.897  9835.880  0.500  0.538719  98.9042  57.7101  22.4215
  9839.524  9839.510  0.500  0.537167  99.2027  57.9742  22.5706
  9843.230  9843.210  0.500  0.535753  98.6006  57.7039  22.4959
  9846.993  9846.990  0.500  0.534333  99.0298  58.0374  22.6378
  9850.864  9850.850  0.500  0.533060  98.9426  58.0602  22.6586
  9854.793  9854.780  0.500  0.531810  98.8785  58.0952  22.6976
  9858.792  9858.790  0.500  0.530420  98.7763  58.1158  22.7405
  9862.896  9862.880  0.500  0.529078  98.6863  58.1408  22.7819
  9867.040  9867.040  0.500  0.527771  98.6118  58.1729  22.829
  9871.290  9871.280  0.500  0.526630  98.5057  58.1767  22.8602
  9875.606  9875.590  0.500  0.525870  98.4132  58.1662  22.8754
  9879.998  9879.980  0.500  0.525237  98.1308  58.0361  22.831
  9884.453  9884.450  0.500  0.524571  98.0524  58.0283  22.8243
  9889.010  9888.990  0.500  0.523825  98.0913  58.0946  22.8411
  9893.621  9893.610  0.500  0.522760  97.9901  58.0966  22.8404
  9898.309  9898.300  0.500  0.521480  97.8815  58.1065  22.8686
[...]
  9917.877  9917.850  0.500  0.514361  97.4423  58.259  23.0644
  9922.933  9922.920  0.500  0.512836  97.3119  58.2699  23.1212
  9928.089  9928.070  0.500  0.511638  97.1399  58.2366  23.1456
  9933.314  9933.300  0.500  0.510366  95.6406  57.4107  22.8315
  9938.613  9938.610  0.500  0.508904  97.0337  58.3322  23.2149
  9943.995  9943.990  0.500  0.507307  96.8919  58.34  23.239
  9949.459  9949.450  0.500  0.505877  96.7333  58.3279  23.2611
  9954.995  9954.980  0.500  0.504361  95.9873  57.9659  23.1482
  9960.596  9960.590  0.500  0.502924  96.4608  58.3356  23.3289
  9966.269  9966.270  0.500  0.501407  96.1151  58.2148  23.3159
  9972.047  9972.040  0.500  0.499798  96.3097  58.4266  23.4351
  9977.874  9977.870  0.500  0.498401  96.1461  58.4089  23.4518
  9983.800  9983.790  0.500  0.496813  91.8356  55.8789  22.4493
  9989.788  9989.780  0.500  0.495147  95.8429  58.4145  23.4834
  9995.867  9995.850  0.500  0.493594  95.6109  58.3636  23.4825
  10002.009  10001.990  0.500  0.491917  95.6376  58.4779  23.5576
  10008.236  10008.210  0.500  0.490139  95.5178  58.5086  23.6024
  10014.515  10014.500  0.500  0.488478  93.1682  57.1642  23.0987
  10020.881  10020.870  0.500  0.486540  95.1735  58.5079  23.6813
  10027.332  10027.320  0.500  0.484886  95.0347  58.5192  23.7296
  10033.875  10033.850  0.500  0.482959  94.6726  58.4088  23.7252
  10040.458  10040.450  0.500  0.481162  94.8341  58.6136  23.8459
  10047.141  10047.120  0.500  0.479429  94.6685  58.6127  23.8758
  10053.885  10053.870  0.500  0.477669  94.5063  58.6154  23.9082
  10060.722  10060.700  0.500  0.475890  94.3555  58.6261  23.9447
  10067.634  10067.610  0.500  0.474075  94.2121  58.6433  23.9861
  10074.613  10074.590  0.500  0.472175  94.0424  58.649  24.0214
  10081.663  10081.650  0.500  0.470277  93.9036  58.6737  24.0668
  10088.790  10088.780  0.500  0.468533  91.4249  57.2247  23.504
  10096.024  10095.990  0.500  0.466753  93.5699  58.6716  24.1287
  10103.313  10103.280  0.500  0.464704  93.4271  58.7022  24.1766
  10110.656  10110.640  0.500  0.462908  93.2743  58.7115  24.2176
  10118.095  10118.080  0.500  0.460834  93.0992  58.723  24.261
  10125.616  10125.590  0.500  0.458850  92.9527  58.747  24.3047
  10133.202  10133.180  0.500  0.456880  92.8  58.7662  24.3524
  10140.883  10140.850  0.500  0.454923  92.6246  58.77  24.394
  10148.622  10148.590  0.500  0.452832  92.4636  58.7906  24.443
  10156.448  10156.410  0.500  0.450932  92.2993  58.7978  24.4906
  10164.349  10164.310  0.500  0.448747  92.1277  58.8169  24.5416
  10172.312  10172.280  0.500  0.446824  91.9522  58.8178  24.5835
  10180.369  10180.330  0.500  0.444635  91.7873  58.841  24.6337
  10188.488  10188.450  0.500  0.442538  91.615  58.8538  24.676
  10196.688  10196.650  0.500  0.440454  91.4452  58.8673  24.7183
  10204.964  10204.930  0.500  0.438373  91.236  58.855  24.7512
  10213.308  10213.280  0.500  0.436170  91.0741  58.8801  24.7942
  10221.730  10221.710  0.500  0.434064  91.0321  58.9771  24.8773
  10230.233  10230.210  0.500  0.431965  91.0348  59.1027  24.9773
  10238.815  10238.790  0.500  0.429738  90.5094  58.8926  24.9343
  10247.484  10247.450  0.500  0.427613  90.676  59.1265  25.083
  10256.218  10256.190  0.500  0.425509  90.479  59.1223  25.1253
  10265.022  10265.000  0.500  0.423429  90.2768  59.113  25.1653
  10273.915  10273.880  0.500  0.421163  90.0579  59.1035  25.2039
  10282.865  10282.840  0.500  0.418869  89.89  59.1288  25.2574
  10291.904  10291.880  0.500  0.416618  89.6854  59.1271  25.2949
  10296.457  10296.430  0.500  0.415393  89.5819  59.1313  25.3186