Folder: webxdiviewer/xdidata/Er (part 2)

File: Er-L1-ErbiumOxide.xdi
# XDI/1.0 BlueSky/1.10.0 BMM/2023-1.0-py310-tiled
# Beamline.name: BMM (06BM) -- Beamline for Materials Measurement (NIST)
# Beamline.xray_source: NSLS-II three-pole wiggler
# Beamline.collimation: paraboloid mirror, 5 nm Rh on 30 nm Pt
# Beamline.focusing: not in use
# Beamline.harmonic_rejection: flat mirror, Pt stripe, pitch = 7.0 mrad relative to beam
# Beamline.software: Bluesky 1.10.0, Ophyd 1.7.0, DataBroker 2.0.0b13, Python 3.10.8, 2023-1.0-py310-tiled
# Detector.I0: 10 cm N2
# Detector.I1: 25 cm N2
# Detector.I2: 25 cm N2
# Element.symbol: Er
# Element.edge: L1
# Element.reference: Er
# Element.reference_material: Er2O3
# Facility.name: NSLS-II
# Facility.energy: 3.0
# Facility.current: 399.9
# Facility.mode: top-off
# Facility.GUP: 301027
# Facility.SAF: 310583
# Facility.cycle: 2023-2
# Mono.name: Si(111)
# Mono.d_spacing: 3.13519
# Mono.encoder_resolution: 0.0000050 deg/ct
# Mono.angle_offset: 16.0754 deg
# Mono.scan_mode: pseudo channel cut
# Mono.scan_type: step
# Mono.direction: forward in energy
# Sample.name: Er2O3
# Sample.prep: PEG pellet
# Sample.x: 109.138 mm
# Sample.y: 153.150 mm
# Sample.SDD_position: 205.000 mm
# Scan.experimenters: Bruce Ravel
# Scan.edge_energy: 9751.3
# Scan.start_time: 2023-05-28T17:06:55
# Scan.end_time: 2023-05-28T17:15:12
# Scan.transient_id: 78861
# Scan.uid: daf0e6d4-93b6-424e-94ab-d3a09398ed9d
# Scan.plot_hint: ln(It/Ir)  --  ln($6/$7)
# Column.1: energy eV
# Column.2: requested_energy eV
# Column.3: measurement_time seconds
# Column.4: xmu
# Column.5: I0 nA
# Column.6: It nA
# Column.7: Ir nA
# ///////////
# sample courtesy Martin Stennett, University of Sheffield
# -----------
# energy  requested_energy  measurement_time  xmu  I0  It  Ir
  9551.293  9551.300  0.500  1.083159  104.874  155.01  52.4746
  9581.350  9581.300  0.500  1.074978  104.352  154.634  52.7775
  9611.357  9611.300  0.500  1.066544  103.797  154.237  53.0876
  9641.364  9641.300  0.500  1.058892  103.267  153.844  53.3591
  9671.361  9671.300  0.500  1.051907  102.746  153.446  53.5942
  9701.322  9701.300  0.500  1.043874  102.242  153.071  53.8945
  9723.283  9723.300  0.500  1.038999  101.858  152.777  54.054
  9729.268  9729.300  0.500  1.038140  101.765  152.705  54.0749
  9735.280  9735.300  0.500  1.037514  101.655  152.603  54.0724
  9741.288  9741.300  0.500  1.036956  101.546  152.502  54.0669
  9742.162  9742.200  0.500  1.036958  101.499  152.483  54.0601
  9743.064  9743.100  0.500  1.036982  101.487  152.467  54.0531
  9743.967  9744.000  0.500  1.037061  101.449  152.432  54.0365
  9744.882  9744.900  0.500  1.037121  101.44  152.415  54.0271
  9745.769  9745.800  0.500  1.037299  101.436  152.423  54.0205
  9746.668  9746.700  0.500  1.037418  101.427  152.423  54.0139
  9747.579  9747.600  0.500  1.037660  101.366  152.314  53.9623
  9748.478  9748.500  0.500  1.038027  101.355  152.308  53.9403
  9749.390  9749.400  0.500  1.038453  101.343  152.322  53.9223
  9750.298  9750.300  0.500  1.039246  101.64  152.782  54.0422
  9751.194  9751.200  0.500  1.040423  101.648  152.783  53.9789
  9752.094  9752.100  0.500  1.042133  101.627  152.772  53.8829
  9752.990  9753.000  0.500  1.044463  101.599  152.757  53.7524
  9753.886  9753.900  0.500  1.047251  101.594  152.77  53.607
  9754.799  9754.800  0.500  1.049955  101.552  152.694  53.4359
  9755.700  9755.700  0.500  1.052441  101.541  152.671  53.2952
  9756.593  9756.600  0.500  1.054983  101.519  152.655  53.1541
  9757.489  9757.500  0.500  1.057607  101.494  152.638  53.0092
  9758.391  9758.400  0.500  1.060240  101.493  152.639  52.87
  9759.296  9759.300  0.500  1.062850  101.451  152.581  52.7123
  9760.202  9760.200  0.500  1.065786  101.408  152.539  52.5431
  9761.104  9761.100  0.500  1.068932  101.384  152.528  52.3742
  9762.006  9762.000  0.500  1.072450  101.396  152.543  52.1955
  9762.895  9762.900  0.500  1.076400  101.356  152.521  51.9823
  9763.789  9763.800  0.500  1.080878  101.34  152.493  51.7405
  9764.700  9764.700  0.500  1.085917  101.336  152.485  51.4777
  9765.598  9765.600  0.500  1.090554  101.295  152.44  51.2246
  9766.505  9766.500  0.500  1.094156  101.267  152.413  51.0312
  9767.396  9767.400  0.500  1.096122  101.25  152.384  50.9213
  9768.291  9768.300  0.500  1.096431  101.247  152.409  50.9139
  9769.186  9769.200  0.500  1.095671  101.185  152.326  50.9248
  9770.101  9770.100  0.500  1.094531  101.154  152.263  50.9619
  9771.005  9771.000  0.500  1.093568  101.138  152.264  51.0112
  9771.905  9771.900  0.500  1.093095  101.051  152.16  51.0005
  9772.796  9772.800  0.500  1.093115  100.984  152.051  50.963
  9773.692  9773.700  0.500  1.093431  100.553  151.442  50.7428
  9774.596  9774.600  0.500  1.093753  99.5028  149.884  50.2046
  9775.509  9775.500  0.500  1.094024  100.647  151.607  50.7681
  9776.294  9776.300  0.500  1.093965  101.009  152.155  50.9546
  9779.405  9779.310  0.500  1.091564  100.947  152.096  51.0571
  9782.532  9782.500  0.500  1.086115  100.74  151.837  51.2487
  9785.850  9785.860  0.500  1.079482  100.759  151.891  51.6083
  9789.366  9789.380  0.500  1.073963  100.719  151.869  51.8865
  9793.066  9793.080  0.500  1.070919  99.0871  149.438  51.2114
  9796.935  9796.950  0.500  1.070029  100.652  151.861  52.088
  9800.995  9801.000  0.500  1.070036  100.503  151.693  52.0303
  9805.203  9805.210  0.500  1.070468  100.472  151.68  52.0033
  9809.581  9809.590  0.500  1.071609  100.379  151.612  51.9206
  9814.146  9814.150  0.500  1.073503  100.333  151.584  51.8127
  9818.862  9818.880  0.500  1.075766  100.188  151.425  51.6414
  9823.783  9823.780  0.500  1.076689  100.051  151.288  51.5472
  9828.854  9828.850  0.500  1.074992  99.4842  150.466  51.3543
  9834.090  9834.090  0.500  1.070783  100.189  151.602  51.96
  9839.504  9839.510  0.500  1.066592  100.146  151.615  52.1828
  9845.095  9845.090  0.500  1.064591  99.7555  151.08  52.1029
  9850.848  9850.850  0.500  1.063579  99.9517  151.468  52.2896
  9856.767  9856.780  0.500  1.061718  99.8546  151.366  52.3515
  9862.883  9862.880  0.500  1.059276  99.7424  151.277  52.4489
  9869.154  9869.150  0.500  1.056863  99.6433  151.184  52.543
  9875.598  9875.590  0.500  1.054997  99.5496  151.108  52.6149
  9882.206  9882.200  0.500  1.054345  97.3961  147.937  51.5443
  9889.010  9888.990  0.500  1.054712  99.2456  150.813  52.5272
  9895.963  9895.950  0.500  1.054290  99.141  150.738  52.5233
  9903.095  9903.070  0.500  1.052222  99.0082  150.608  52.5865
  9910.374  9910.370  0.500  1.050388  98.8768  150.5  52.6452
  9917.856  9917.850  0.500  1.047084  98.769  150.417  52.7903
  9925.493  9925.490  0.500  1.043627  98.6253  150.301  52.9324
  9933.297  9933.300  0.500  1.041768  95.5064  145.614  51.3769
  9941.301  9941.290  0.500  1.040488  98.3547  150.043  53.0077
  9949.459  9949.450  0.500  1.038558  98.1538  149.839  53.0376
  9957.786  9957.770  0.500  1.036395  97.9721  149.666  53.0912
  9966.277  9966.270  0.500  1.033836  97.7095  149.374  53.1235
  9974.968  9974.950  0.500  1.031400  97.7828  149.578  53.3257
  9983.804  9983.790  0.500  1.030080  95.7671  146.574  52.3237
  9992.807  9992.800  0.500  1.028705  97.3533  149.114  53.3038
  10002.009  10001.990  0.500  1.026749  97.34  149.187  53.4341
  10011.353  10011.350  0.500  1.024346  97.0818  148.901  53.4602
  10020.881  10020.870  0.500  1.021469  96.9262  148.758  53.5627
  10030.583  10030.570  0.500  1.018407  96.7515  148.59  53.6663
  10040.458  10040.450  0.500  1.015587  96.6056  148.459  53.7702
  10050.509  10050.490  0.500  1.013380  96.399  148.275  53.8224
  10060.709  10060.700  0.500  1.011177  96.2021  148.074  53.8681
  10071.118  10071.090  0.500  1.008698  96.0086  147.883  53.9319
  10081.650  10081.650  0.500  1.006087  95.831  147.719  54.0131
  10092.399  10092.380  0.500  1.003822  95.4415  147.243  53.9609
  10103.291  10103.280  0.500  1.001314  95.3799  147.247  54.098
  10114.379  10114.350  0.500  0.998617  95.1687  147.024  54.1621
  10125.607  10125.590  0.500  0.996069  94.9706  146.846  54.2343
  10137.034  10137.010  0.500  0.993369  94.7268  146.583  54.2838
  10148.604  10148.590  0.500  0.990336  94.5304  146.403  54.3817
  10160.366  10160.350  0.500  0.987359  94.3151  146.189  54.4642
  10172.294  10172.280  0.500  0.984345  94.0882  145.933  54.5327
  10184.395  10184.380  0.500  0.981628  93.8457  145.694  54.5918
  10196.665  10196.650  0.500  0.978837  93.5505  145.365  54.6208
  10209.105  10209.090  0.500  0.976454  93.3594  145.189  54.6847
  10221.743  10221.710  0.500  0.973662  93.1346  144.96  54.7511
  10234.527  10234.490  0.500  0.970444  92.87  144.66  54.8138
  10247.480  10247.450  0.500  0.967257  92.6492  144.453  54.9103
  10260.612  10260.580  0.500  0.964203  92.3938  144.187  54.9768
  10273.915  10273.880  0.500  0.961221  92.1328  143.905  55.033
  10287.373  10287.350  0.500  0.958394  91.9019  143.675  55.1007
  10301.028  10301.000  0.500  0.955593  91.6057  143.334  55.1241
  10314.835  10314.810  0.500  0.952346  91.3448  143.044  55.1912
  10328.827  10328.800  0.500  0.948775  91.0729  142.756  55.2773
  10342.974  10342.960  0.500  0.945667  90.7915  142.421  55.3191
  10357.301  10357.290  0.500  0.942737  90.5276  142.153  55.3772
  10371.816  10371.790  0.500  0.939605  90.4652  142.197  55.5681
  10386.476  10386.460  0.500  0.936603  90.2046  141.921  55.6269
  10401.329  10401.300  0.500  0.933239  89.9127  141.564  55.6738
  10416.352  10416.320  0.500  0.929624  89.6431  141.277  55.7623
  10431.527  10431.500  0.500  0.926266  89.3476  140.947  55.8192
  10446.889  10446.860  0.500  0.923086  89.0343  140.594  55.8565
  10462.412  10462.390  0.500  0.919993  88.732  140.24  55.8886
  10478.110  10478.090  0.500  0.916871  88.4173  139.889  55.9231
  10493.985  10493.960  0.500  0.913387  88.0991  139.518  55.9695
  10510.033  10510.010  0.500  0.909724  87.7901  139.162  56.0317
  10526.252  10526.220  0.500  0.906289  87.2251  138.41  55.9206
  10542.647  10542.610  0.500  0.902892  87.1434  138.412  56.1118
  10559.200  10559.170  0.500  0.899572  86.7387  137.9  56.0898
  10575.932  10575.900  0.500  0.896279  86.4765  137.624  56.1624
  10592.831  10592.800  0.500  0.892823  86.155  137.234  56.197
  10604.179  10604.160  0.500  0.890466  85.8988  136.925  56.2028

File: Er-L3-Er2TiO5.xdi
# XDI/1.0 BlueSky/1.10.0 BMM/2023-1.0-py310-tiled
# Beamline.name: BMM (06BM) -- Beamline for Materials Measurement (NIST)
# Beamline.xray_source: NSLS-II three-pole wiggler
# Beamline.collimation: paraboloid mirror, 5 nm Rh on 30 nm Pt
# Beamline.focusing: not in use
# Beamline.harmonic_rejection: flat mirror, Pt stripe, pitch = 7.0 mrad relative to beam
# Beamline.software: Bluesky 1.10.0, Ophyd 1.7.0, DataBroker 2.0.0b13, Python 3.10.8, 2023-1.0-py310-tiled
# Detector.I0: 10 cm N2
# Detector.I1: 25 cm N2
# Detector.I2: 25 cm N2
# Element.symbol: Er
# Element.edge: L3
# Element.reference: Er
# Element.reference_material: Er2O3
# Facility.name: NSLS-II
# Facility.energy: 3.0
# Facility.current: 399.6
# Facility.mode: top-off
# Facility.GUP: 123456
# Facility.SAF: 301027
# Facility.cycle: 2023-2
# Mono.name: Si(111)
# Mono.d_spacing: 3.13519
# Mono.encoder_resolution: 0.0000050 deg/ct
# Mono.angle_offset: 16.0754 deg
# Mono.scan_mode: pseudo channel cut
# Mono.scan_type: step
# Mono.direction: forward in energy
# Sample.name: Er2TiO5
# Sample.prep: Powder in PEG pellet
# Sample.x: 149.848 mm
# Sample.y: 114.690 mm
# Sample.SDD_position: 205.000 mm
# Scan.experimenters: Bruce Ravel
# Scan.edge_energy: 8357.9
# Scan.start_time: 2023-05-08T19:13:01
# Scan.end_time: 2023-05-08T19:18:46
# Scan.transient_id: 75526
# Scan.uid: 0ede0184-1b96-406f-bdd4-a4d4f41646dd
# Scan.plot_hint: ln(I0/It)  --  ln($5/$6)
# Column.1: energy eV
# Column.2: requested_energy eV
# Column.3: measurement_time seconds
# Column.4: xmu
# Column.5: I0 nA
# Column.6: It nA
# Column.7: Ir nA
# ///////////
# sample courtesy Martin Stennett, University of Sheffield
# -----------
# energy  requested_energy  measurement_time  xmu  I0  It  Ir
  8157.906  8157.900  0.500  0.694906  134.952  67.3576  26.8572
  8177.938  8177.900  0.500  0.685449  134.649  67.8447  27.2291
  8197.928  8197.900  0.500  0.675861  134.365  68.3539  27.6095
  8217.926  8217.900  0.500  0.666703  134.016  68.8037  27.9705
  8237.926  8237.900  0.500  0.657294  133.71  69.2954  28.346
  8257.925  8257.900  0.500  0.648250  133.387  69.7561  28.7142
  8277.929  8277.900  0.500  0.639487  132.21  69.7489  28.8837
  8297.910  8297.900  0.500  0.631098  132.678  70.5858  29.3927
  8319.148  8317.900  0.500  0.623723  132.235  70.871  29.644
  8329.879  8329.900  0.500  0.621633  132.089  70.9406  29.6922
  8333.882  8333.900  0.500  0.621741  131.869  70.8148  29.6155
  8337.880  8337.900  0.500  0.622836  131.745  70.6709  29.5065
  8341.879  8341.900  0.500  0.626004  131.609  70.3743  29.2755
  8345.882  8345.900  0.500  0.633416  131.479  69.7858  28.8027
  8348.379  8348.400  0.500  0.643055  131.345  69.0457  28.2097
  8349.375  8349.400  0.500  0.649413  131.27  68.569  27.8341
  8350.376  8350.400  0.500  0.658266  131.181  67.9188  27.319
  8351.372  8351.400  0.500  0.669952  131.085  67.0807  26.658
  8352.377  8352.400  0.500  0.681788  130.996  66.2461  26.0015
  8353.385  8353.400  0.500  0.693470  130.954  65.456  25.377
  8354.385  8354.400  0.500  0.709493  130.941  64.4092  24.5471
  8355.387  8355.400  0.500  0.735036  130.929  62.779  23.2849
  8356.381  8356.400  0.500  0.775945  130.921  60.2588  21.3785
  8357.385  8357.400  0.500  0.839954  130.901  56.5138  18.6799
  8358.385  8358.400  0.500  0.929874  130.882  51.6464  15.4404
  8359.398  8359.400  0.500  1.041548  130.869  46.1847  12.2009
  8360.399  8360.400  0.500  1.140331  130.865  41.8394  9.975077
  8361.394  8361.400  0.500  1.199734  130.862  39.4255  8.897887
  8362.392  8362.400  0.500  1.223051  131.353  38.6613  8.486878
  8363.391  8363.400  0.500  1.213492  131.331  39.0259  8.543509
  8364.393  8364.400  0.500  1.173257  131.315  40.6233  9.228286
  8365.398  8365.400  0.500  1.108531  131.3  43.3346  10.585
  8366.398  8366.400  0.500  1.038215  131.284  46.486  12.3137
  8367.397  8367.400  0.500  0.979227  131.262  49.3022  13.9694
  8368.391  8368.400  0.500  0.935652  131.252  51.4943  15.3314
  8369.395  8369.400  0.500  0.905728  131.231  53.0499  16.3218
  8370.404  8370.400  0.500  0.885342  131.219  54.1376  17.0165
  8371.408  8371.400  0.500  0.869903  131.202  54.9725  17.5551
  8372.406  8372.400  0.500  0.858246  131.175  55.6059  17.9641
  8373.401  8373.400  0.500  0.850835  131.153  56.0098  18.2385
  8374.393  8374.400  0.500  0.846868  131.142  56.228  18.4086
  8375.395  8375.400  0.500  0.844940  131.117  56.3255  18.4846
  8376.403  8376.400  0.500  0.845262  131.101  56.3008  18.4697
  8377.402  8377.400  0.500  0.846754  131.089  56.2117  18.3923
  8378.398  8378.400  0.500  0.849055  131.074  56.0757  18.2891
  8379.401  8379.400  0.500  0.851307  131.049  55.9393  18.2104
  8380.392  8380.400  0.500  0.853241  131.021  55.819  18.1691
  8381.395  8381.400  0.500  0.854188  130.995  55.7551  18.1796
  8382.404  8382.400  0.500  0.854151  130.962  55.7433  18.231
  8383.890  8383.890  0.500  0.852723  130.909  55.8002  18.3521
  8385.923  8385.910  0.500  0.851653  130.845  55.8327  18.4249
  8388.029  8388.020  0.500  0.855922  130.769  55.5627  18.2285
  8390.208  8390.200  0.500  0.864576  130.707  55.0575  17.8495
  8392.470  8392.460  0.500  0.874315  130.658  54.5036  17.4255
  8394.794  8394.790  0.500  0.884680  130.605  53.9198  16.9488
  8397.213  8397.200  0.500  0.894817  130.545  53.3514  16.4952
  8399.688  8399.680  0.500  0.899357  130.484  53.085  16.3224
  8402.252  8402.240  0.500  0.894705  130.427  53.3092  16.5167
  8404.881  8404.880  0.500  0.882706  130.373  53.9302  16.9335
  8407.603  8407.600  0.500  0.870051  130.331  54.5996  17.36
  8410.400  8410.390  0.500  0.860177  130.266  55.1141  17.6735
  8413.250  8413.250  0.500  0.853147  130.201  55.4748  17.9089
  8416.203  8416.190  0.500  0.848858  130.137  55.6861  18.0865
  8419.221  8419.210  0.500  0.846883  130.072  55.7681  18.1918
  8422.321  8422.310  0.500  0.846382  130.007  55.7683  18.2509
  8425.496  8425.480  0.500  0.847064  129.942  55.7024  18.2708
  8428.738  8428.730  0.500  0.847936  129.874  55.6248  18.2564
  8432.061  8432.050  0.500  0.848278  129.802  55.5747  18.2114
  8435.458  8435.450  0.500  0.848961  129.722  55.5028  18.117
  8438.934  8438.930  0.500  0.849278  129.647  55.4532  18.0117
  8442.495  8442.480  0.500  0.849354  129.582  55.4211  17.9298
  8446.127  8446.110  0.500  0.849490  129.494  55.3761  17.8801
  8449.823  8449.810  0.500  0.849515  129.403  55.3356  17.8707
  8453.602  8453.590  0.500  0.849414  129.32  55.3058  17.8877
  8457.455  8457.450  0.500  0.848961  129.228  55.2913  17.9033
  8461.392  8461.380  0.500  0.847705  129.128  55.3178  17.9313
  8465.400  8465.390  0.500  0.845768  129.039  55.3872  17.9862
  8469.502  8469.480  0.500  0.843236  128.945  55.4871  18.0466
  8473.663  8473.640  0.500  0.840178  128.836  55.6099  18.1094
  8477.899  8477.880  0.500  0.836086  128.733  55.7932  18.1969
  8482.204  8482.190  0.500  0.831789  128.639  55.9925  18.3323
  8486.591  8486.580  0.500  0.828125  128.54  56.1549  18.4923
  8491.060  8491.050  0.500  0.825249  128.428  56.2675  18.6425
  8495.599  8495.590  0.500  0.823625  128.323  56.3129  18.7292
  8500.224  8500.210  0.500  0.822562  128.215  56.3254  18.7215
  8504.913  8504.900  0.500  0.822288  128.101  56.291  18.675
[...]
  8519.457  8519.450  0.500  0.821206  127.711  56.1802  18.5504
  8524.458  8524.450  0.500  0.818954  127.481  56.2053  18.5213
  8529.533  8529.520  0.500  0.816235  122.808  54.2926  17.9191
  8534.684  8534.670  0.500  0.812997  127.065  56.3566  18.7002
  8539.904  8539.900  0.500  0.810343  127.21  56.571  18.8729
  8545.211  8545.210  0.500  0.808049  127.106  56.6546  18.9608
  8550.598  8550.590  0.500  0.806434  126.981  56.6905  18.9909
  8556.061  8556.050  0.500  0.804454  126.847  56.7426  19.0133
  8561.591  8561.580  0.500  0.802648  126.702  56.7802  19.0336
  8567.204  8567.190  0.500  0.800450  126.544  56.8341  19.0588
  8572.878  8572.870  0.500  0.797666  126.38  56.9187  19.1145
  8578.651  8578.640  0.500  0.794988  126.195  56.9878  19.2064
  8584.477  8584.470  0.500  0.792134  125.962  57.0452  19.3009
  8590.390  8590.390  0.500  0.789571  124.906  56.7124  19.2457
  8596.394  8596.380  0.500  0.786739  125.211  57.0117  19.3738
  8602.457  8602.450  0.500  0.784661  125.35  57.194  19.4458
  8608.606  8608.590  0.500  0.782726  124.871  57.0857  19.4132
  8614.834  8614.810  0.500  0.780903  122.36  56.0399  19.0688
  8621.122  8621.100  0.500  0.778862  126.315  57.9694  19.7396
  8627.477  8627.470  0.500  0.776357  125.856  57.9038  19.7509
  8633.929  8633.920  0.500  0.773516  125.421  57.8676  19.7804
  8640.464  8640.450  0.500  0.770719  124.376  57.5464  19.7189
  8647.070  8647.050  0.500  0.767846  124.702  57.8631  19.8879
  8653.751  8653.720  0.500  0.765005  124.856  58.0994  20.0397
  8660.481  8660.470  0.500  0.761955  124.675  58.1925  20.1174
  8667.319  8667.300  0.500  0.759233  124.506  58.2717  20.1772
  8674.233  8674.210  0.500  0.756471  124.314  58.3428  20.2239
  8681.213  8681.190  0.500  0.753585  124.128  58.4241  20.2876
  8688.269  8688.250  0.500  0.750668  123.922  58.4977  20.3659
  8695.393  8695.380  0.500  0.747721  123.686  58.5584  20.4427
  8702.613  8702.590  0.500  0.744641  123.769  58.7784  20.5651
  8709.894  8709.880  0.500  0.741884  122.712  58.4373  20.4822
  8717.260  8717.240  0.500  0.738919  123.741  59.1024  20.7536
  8724.698  8724.680  0.500  0.736424  123.562  59.1644  20.829
  8732.210  8732.190  0.500  0.733587  123.369  59.2399  20.9026
  8739.802  8739.780  0.500  0.730584  123.171  59.3227  20.9672
  8747.470  8747.450  0.500  0.727438  122.97  59.4124  21.0332
  8755.201  8755.190  0.500  0.724529  122.784  59.4951  21.1022
  8763.026  8763.010  0.500  0.721088  122.568  59.5952  21.1898
  8770.927  8770.910  0.500  0.717818  122.37  59.6943  21.2777
  8778.903  8778.880  0.500  0.714611  122.166  59.786  21.3739
  8786.950  8786.930  0.500  0.711428  121.931  59.8611  21.4576
  8795.069  8795.050  0.500  0.708130  121.703  59.9466  21.5534
  8803.270  8803.250  0.500  0.705216  121.505  60.0235  21.6471
  8811.551  8811.530  0.500  0.701703  121.289  60.1278  21.734
  8819.897  8819.880  0.500  0.698380  121.076  60.2221  21.8022
  8828.327  8828.310  0.500  0.695150  120.858  60.3081  21.8668
  8836.830  8836.810  0.500  0.691768  120.645  60.4058  21.9477
  8845.411  8845.390  0.500  0.688526  120.42  60.4891  22.0386
  8854.059  8854.050  0.500  0.685271  120.198  60.5742  22.1321
  8862.813  8862.790  0.500  0.681807  119.965  60.6665  22.2292
  8871.615  8871.600  0.500  0.678563  119.738  60.7485  22.324
  8880.510  8880.480  0.500  0.675069  119.486  60.8326  22.4183
  8889.453  8889.440  0.500  0.671585  119.26  60.9295  22.5206
  8898.497  8898.480  0.500  0.668364  119  60.993  22.596
  8903.055  8903.030  0.500  0.666710  118.872  61.0284  22.629