Folder: webxdiviewer/xdidata/Eu (part 3)

File: Eu-L3-EuropiumOxide.xdi
# XDI/1.0 BlueSky/1.10.0 BMM/2023-1.0-py310-tiled
# Beamline.name: BMM (06BM) -- Beamline for Materials Measurement (NIST)
# Beamline.xray_source: NSLS-II three-pole wiggler
# Beamline.collimation: paraboloid mirror, 5 nm Rh on 30 nm Pt
# Beamline.focusing: not in use
# Beamline.harmonic_rejection: flat mirror, Si stripe, pitch = 7.0 mrad relative to beam
# Beamline.software: Bluesky 1.10.0, Ophyd 1.7.0, DataBroker 2.0.0b13, Python 3.10.8, 2023-1.0-py310-tiled
# Detector.I0: 10 cm N2
# Detector.I1: 25 cm N2
# Detector.I2: 25 cm N2
# Element.symbol: Eu
# Element.edge: L3
# Element.reference: Eu
# Element.reference_material: Eu2O3
# Facility.name: NSLS-II
# Facility.energy: 3.0
# Facility.current: 400.1
# Facility.mode: top-off
# Facility.GUP: 301027
# Facility.SAF: 310583
# Facility.cycle: 2023-2
# Mono.name: Si(111)
# Mono.d_spacing: 3.13519
# Mono.encoder_resolution: 0.0000050 deg/ct
# Mono.angle_offset: 16.0754 deg
# Mono.scan_mode: pseudo channel cut
# Mono.scan_type: step
# Mono.direction: forward in energy
# Sample.name: Eu2O3
# Sample.prep: PEG pellet
# Sample.x: 109.138 mm
# Sample.y: 153.150 mm
# Sample.SDD_position: 205.000 mm
# Scan.experimenters: Bruce Ravel
# Scan.edge_energy: 6976.9
# Scan.start_time: 2023-05-28T13:07:35
# Scan.end_time: 2023-05-28T13:14:58
# Scan.transient_id: 78707
# Scan.uid: a7f3b61d-40ed-4e18-b3bd-ca526332a12d
# Scan.plot_hint: ln(It/Ir)  --  ln($6/$7)
# Column.1: energy eV
# Column.2: requested_energy eV
# Column.3: measurement_time seconds
# Column.4: xmu
# Column.5: I0 nA
# Column.6: It nA
# Column.7: Ir nA
# ///////////
# sample courtesy Martin Stennett, University of Sheffield
# -----------
# energy  requested_energy  measurement_time  xmu  I0  It  Ir
  6776.912  6776.900  0.500  1.737802  153.403  135.839  23.8951
  6806.899  6806.900  0.500  1.715214  153.381  137.198  24.6854
  6836.904  6836.900  0.500  1.693047  153.661  138.873  25.5468
  6866.916  6866.900  0.500  1.671240  153.707  140.334  26.3848
  6896.911  6896.900  0.500  1.649900  154.1  142.175  27.3075
  6926.911  6926.900  0.500  1.629643  154  143.401  28.1065
  6948.878  6948.900  0.500  1.616672  154.114  144.591  28.7098
  6954.886  6954.900  0.500  1.614966  154.132  144.881  28.8165
  6961.124  6960.900  0.500  1.615433  154.096  145.08  28.8426
  6966.897  6966.900  0.500  1.622660  154.091  145.424  28.7027
  6967.783  6967.800  0.500  1.625306  154.071  145.387  28.6196
  6968.681  6968.700  0.500  1.628989  154.078  145.443  28.5254
  6969.583  6969.600  0.500  1.633815  154.041  145.493  28.3978
  6970.486  6970.500  0.500  1.639153  154.041  145.56  28.2597
  6971.390  6971.400  0.500  1.644425  154.025  145.523  28.1039
  6972.292  6972.300  0.500  1.651793  154.02  145.513  27.8958
  6973.189  6973.200  0.500  1.662783  154  145.634  27.6138
  6974.084  6974.100  0.500  1.679106  153.983  145.598  27.16
  6974.998  6975.000  0.500  1.699464  153.992  145.638  26.6199
  6975.894  6975.900  0.500  1.725709  154.456  146.161  26.0235
  6976.800  6976.800  0.500  1.762218  154.486  146.217  25.1002
  6977.692  6977.700  0.500  1.817070  154.468  146.245  23.7649
  6978.595  6978.600  0.500  1.899094  154.466  146.271  21.8974
  6979.496  6979.500  0.500  2.017838  154.448  146.273  19.4459
  6980.401  6980.400  0.500  2.163190  154.442  146.296  16.8179
  6981.297  6981.300  0.500  2.293694  154.427  146.318  14.7625
  6982.194  6982.200  0.500  2.391212  154.414  146.421  13.4003
  6983.098  6983.100  0.500  2.435286  154.407  146.383  12.8191
  6983.996  6984.000  0.500  2.411958  154.394  146.486  13.1309
  6984.902  6984.900  0.500  2.332605  154.373  146.482  14.215
  6985.795  6985.800  0.500  2.229404  154.379  146.559  15.7686
  6986.700  6986.700  0.500  2.129545  154.376  146.539  17.4223
  6987.599  6987.600  0.500  2.049512  154.364  146.623  18.8847
  6988.504  6988.500  0.500  1.989282  154.344  146.641  20.0596
  6989.395  6989.400  0.500  1.948959  154.346  146.644  20.8854
  6990.297  6990.300  0.500  1.920974  154.326  146.672  21.4823
  6991.201  6991.200  0.500  1.902418  154.336  146.749  21.896
  6992.099  6992.100  0.500  1.890096  154.329  146.789  22.1736
  6992.999  6993.000  0.500  1.881367  154.311  146.819  22.3725
  6993.898  6993.900  0.500  1.874802  154.301  146.81  22.5185
  6994.803  6994.800  0.500  1.869973  154.275  146.816  22.6285
  6995.698  6995.700  0.500  1.867302  154.272  146.836  22.692
  6996.603  6996.600  0.500  1.865888  154.242  146.857  22.7274
  6997.495  6997.500  0.500  1.865173  154.238  146.926  22.7543
  6998.401  6998.400  0.500  1.864770  154.218  146.965  22.7695
  6999.301  6999.300  0.500  1.863945  154.216  146.961  22.7878
  7000.203  7000.200  0.500  1.862588  154.186  147.005  22.8255
  7001.102  7001.100  0.500  1.860813  154.181  147.04  22.8715
  7001.896  7001.900  0.500  1.859367  154.179  147.099  22.9138
  7004.922  7004.910  0.500  1.857287  154.171  147.225  22.9811
  7008.113  7008.100  0.500  1.870496  154.125  147.274  22.6871
  7011.471  7011.460  0.500  1.896143  154.11  147.46  22.1406
  7014.988  7014.980  0.500  1.919149  154.103  147.608  21.6588
  7018.691  7018.680  0.500  1.926609  154.081  147.743  21.5175
  7022.563  7022.550  0.500  1.912864  154.08  147.85  21.831
  7026.605  7026.600  0.500  1.890547  154.061  148.039  22.3522
  7030.816  7030.810  0.500  1.872306  154.042  148.222  22.7918
  7035.201  7035.190  0.500  1.861101  153.982  148.421  23.0797
  7039.762  7039.750  0.500  1.854894  153.956  148.545  23.2427
  7044.488  7044.480  0.500  1.852290  153.935  148.776  23.3396
  7049.385  7049.380  0.500  1.853544  153.907  148.989  23.3437
  7054.462  7054.450  0.500  1.857511  153.885  149.141  23.2751
  7059.699  7059.690  0.500  1.861381  153.899  149.387  23.2234
  7065.118  7065.110  0.500  1.861915  153.788  149.532  23.2335
  7070.708  7070.690  0.500  1.858459  152.932  148.977  23.2274
  7076.473  7076.450  0.500  1.852772  153.477  149.728  23.4776
  7082.371  7082.380  0.500  1.847246  153.693  150.21  23.6838
  7088.488  7088.480  0.500  1.841632  153.641  150.47  23.8583
  7094.761  7094.750  0.500  1.834893  153.598  150.714  24.0586
  7101.195  7101.190  0.500  1.826854  153.565  150.965  24.2931
  7107.807  7107.800  0.500  1.818606  153.488  151.163  24.5264
  7114.596  7114.590  0.500  1.815218  153.168  151.189  24.6139
  7121.558  7121.550  0.500  1.815915  153.438  151.754  24.6887
  7128.679  7128.670  0.500  1.816416  153.092  151.689  24.6658
  7135.981  7135.970  0.500  1.814512  152.821  151.7  24.7145
  7143.461  7143.450  0.500  1.807799  152.81  152.013  24.9324
  7151.100  7151.090  0.500  1.798791  152.813  152.36  25.2155
  7158.906  7158.900  0.500  1.792633  152.763  152.699  25.4276
  7166.896  7166.890  0.500  1.788291  152.58  152.79  25.5535
  7175.065  7175.050  0.500  1.783807  152.426  153.027  25.7082
  7183.386  7183.370  0.500  1.778258  152.321  153.308  25.8987
  7191.885  7191.870  0.500  1.771117  150.789  152.122  25.8824
  7200.565  7200.550  0.500  1.764116  151.932  153.592  26.3162
  7209.408  7209.390  0.500  1.759073  151.734  153.81  26.4867
  7218.409  7218.400  0.500  1.755409  151.519  153.956  26.6092
  7227.606  7227.590  0.500  1.750870  150.484  153.308  26.6178
  7236.964  7236.950  0.500  1.744608  151.236  154.479  26.9896
  7246.478  7246.470  0.500  1.737434  150.759  154.377  27.1659
  7256.188  7256.170  0.500  1.730115  151.013  155.062  27.4869
  7266.066  7266.050  0.500  1.723497  149.098  153.48  27.3872
  7276.103  7276.090  0.500  1.717700  151.175  155.957  27.991
  7286.304  7286.300  0.500  1.711767  150.657  155.865  28.141
  7296.700  7296.690  0.500  1.704560  150.687  156.346  28.4319
  7307.261  7307.250  0.500  1.697120  150.62  156.762  28.7204
  7317.992  7317.980  0.500  1.690435  150.405  156.907  28.9398
  7328.888  7328.880  0.500  1.683974  150.18  157.158  29.174
  7339.956  7339.950  0.500  1.677646  148.129  155.507  29.0508
  7351.199  7351.190  0.500  1.670978  149.711  157.579  29.6347
  7362.624  7362.610  0.500  1.663587  149.493  157.799  29.8963
  7374.205  7374.190  0.500  1.655801  149.254  158.019  30.172
  7385.958  7385.950  0.500  1.647937  148.989  158.197  30.4445
  7397.900  7397.880  0.500  1.640294  148.749  158.43  30.7232
  7409.998  7409.980  0.500  1.633089  148.471  158.589  30.9764
  7422.266  7422.250  0.500  1.626092  148.139  158.741  31.2238
  7434.708  7434.690  0.500  1.618479  147.818  158.798  31.4737
  7447.328  7447.310  0.500  1.610441  147.05  158.466  31.6613
  7460.108  7460.090  0.500  1.602553  143.367  154.994  31.2129
  7473.068  7473.050  0.500  1.594255  146.943  159.344  32.3564
  7486.205  7486.180  0.500  1.586330  146.55  159.428  32.631
  7499.510  7499.480  0.500  1.578821  146.177  159.501  32.8919
  7512.970  7512.950  0.500  1.570924  145.785  159.624  33.1782
  7526.594  7526.600  0.500  1.562314  145.351  159.639  33.4684
  7540.431  7540.410  0.500  1.553379  144.913  159.652  33.7715
  7554.420  7554.400  0.500  1.544639  144.446  159.678  34.0736
  7568.574  7568.560  0.500  1.536456  143.984  159.658  34.3492
  7582.890  7582.890  0.500  1.528543  143.469  159.591  34.6074
  7592.536  7592.530  0.500  1.523556  143.047  159.491  34.7587

File: Eu-L3-EuTiO3.xdi
# XDI/1.0 BlueSky/1.10.0 BMM/2023-1.0-py310-tiled
# Beamline.name: BMM (06BM) -- Beamline for Materials Measurement (NIST)
# Beamline.xray_source: NSLS-II three-pole wiggler
# Beamline.collimation: paraboloid mirror, 5 nm Rh on 30 nm Pt
# Beamline.focusing: not in use
# Beamline.harmonic_rejection: flat mirror, Si stripe, pitch = 7.0 mrad relative to beam
# Beamline.software: Bluesky 1.10.0, Ophyd 1.7.0, DataBroker 2.0.0b13, Python 3.10.8, 2023-1.0-py310-tiled
# Detector.I0: 10 cm N2
# Detector.I1: 25 cm N2
# Detector.I2: 25 cm N2
# Element.symbol: Eu
# Element.edge: L3
# Element.reference: Eu
# Element.reference_material: Eu2O3
# Facility.name: NSLS-II
# Facility.energy: 3.0
# Facility.current: 400.6
# Facility.mode: top-off
# Facility.GUP: 123456
# Facility.SAF: 301027
# Facility.cycle: 2023-2
# Mono.name: Si(111)
# Mono.d_spacing: 3.13519
# Mono.encoder_resolution: 0.0000050 deg/ct
# Mono.angle_offset: 16.0754 deg
# Mono.scan_mode: pseudo channel cut
# Mono.scan_type: step
# Mono.direction: forward in energy
# Sample.name: EuTiO3
# Sample.prep: powder on tape
# Sample.x: 123.848 mm
# Sample.y: 114.690 mm
# Sample.SDD_position: 205.000 mm
# Scan.experimenters: Bruce Ravel
# Scan.edge_energy: 6976.9
# Scan.start_time: 2023-05-08T17:40:50
# Scan.end_time: 2023-05-08T17:47:00
# Scan.transient_id: 75456
# Scan.uid: fdb6714c-37bf-4ddf-aa4d-784a61bb3ba9
# Scan.plot_hint: ln(I0/It)  --  ln($5/$6)
# Column.1: energy eV
# Column.2: requested_energy eV
# Column.3: measurement_time seconds
# Column.4: xmu
# Column.5: I0 nA
# Column.6: It nA
# Column.7: Ir nA
# ///////////
# material made by Fatih Dogan
# -----------
# energy  requested_energy  measurement_time  xmu  I0  It  Ir
  6776.910  6776.900  0.500  0.805569  151.786  67.8232  16.7636
  6796.913  6796.900  0.500  0.792643  151.028  68.3625  17.1066
  6816.962  6816.900  0.500  0.779731  151.913  69.6564  17.6415
  6836.923  6836.900  0.500  0.767051  152.102  70.6333  18.1035
  6856.918  6856.900  0.500  0.754561  152.001  71.4733  18.5383
  6876.916  6876.900  0.500  0.742099  152.37  72.5452  19.0388
  6896.915  6896.900  0.500  0.729871  152.556  73.5275  19.5186
  6916.911  6916.900  0.500  0.718358  152.502  74.3527  19.9552
  6937.714  6936.900  0.500  0.707254  152.395  75.1301  20.3729
  6948.880  6948.900  0.500  0.701767  152.477  75.5841  20.5843
  6952.881  6952.900  0.500  0.700336  152.491  75.6996  20.6326
  6956.884  6956.900  0.500  0.699945  152.461  75.7141  20.6368
  6960.890  6960.900  0.500  0.701389  152.489  75.6186  20.5846
  6964.891  6964.900  0.500  0.707999  152.491  75.1214  20.3644
  6967.384  6967.400  0.500  0.720564  152.494  74.1848  19.9902
  6968.381  6968.400  0.500  0.730230  152.48  73.4648  19.7151
  6969.382  6969.400  0.500  0.745449  152.471  72.3507  19.3078
  6970.385  6970.400  0.500  0.771683  152.461  70.4726  18.6943
  6971.386  6971.400  0.500  0.816878  152.44  67.3495  17.7498
  6972.386  6972.400  0.500  0.891491  152.444  62.5088  16.3203
  6973.388  6973.400  0.500  1.002908  152.447  55.9192  14.3817
  6974.389  6974.400  0.500  1.120734  152.434  49.6996  12.5148
  6975.393  6975.400  0.500  1.147807  152.421  48.368  11.8517
  6976.390  6976.400  0.500  1.066438  152.419  52.4676  12.3654
  6977.392  6977.400  0.500  0.968802  152.406  57.8439  12.8524
  6978.395  6978.400  0.500  0.899532  152.391  61.9866  12.5396
  6979.393  6979.400  0.500  0.857321  152.388  64.6579  11.4126
  6980.389  6980.400  0.500  0.831532  152.384  66.3451  9.965077
  6981.389  6981.400  0.500  0.818834  152.392  67.1964  8.833839
  6982.398  6982.400  0.500  0.815217  152.378  67.4341  8.155013
  6983.397  6983.400  0.500  0.817322  152.381  67.2934  8.087608
  6984.392  6984.400  0.500  0.822434  152.357  66.9395  8.651528
  6985.394  6985.400  0.500  0.829351  152.364  66.4816  9.602718
  6986.400  6986.400  0.500  0.835835  152.348  66.0446  10.6801
  6987.398  6987.400  0.500  0.838206  152.348  65.8885  11.6328
  6988.394  6988.400  0.500  0.835348  152.331  66.0693  12.43
  6989.397  6989.400  0.500  0.831645  152.324  66.3116  12.9971
  6990.404  6990.400  0.500  0.828714  152.322  66.5056  13.3926
  6991.400  6991.400  0.500  0.827981  152.323  66.5544  13.6249
  6992.397  6992.400  0.500  0.830071  152.319  66.414  13.7499
  6993.399  6993.400  0.500  0.835279  152.297  66.0592  13.7854
  6994.403  6994.400  0.500  0.842470  152.281  65.579  13.7627
  6995.402  6995.400  0.500  0.847211  152.294  65.2746  13.7402
  6996.396  6996.400  0.500  0.848049  152.293  65.2194  13.7476
  6997.397  6997.400  0.500  0.846254  152.277  65.3297  13.7767
  6998.403  6998.400  0.500  0.844300  152.269  65.4542  13.8095
  6999.392  6999.400  0.500  0.844488  152.261  65.4383  13.8214
  7000.398  7000.400  0.500  0.845762  152.25  65.3502  13.8255
  7001.400  7001.400  0.500  0.846429  152.246  65.3051  13.8399
  7002.897  7002.890  0.500  0.843471  152.235  65.4939  13.9113
  7004.922  7004.910  0.500  0.834167  152.242  66.109  14.033
  7007.025  7007.020  0.500  0.827090  152.223  66.5703  14.0158
  7009.209  7009.200  0.500  0.817626  152.194  67.1905  13.9336
  7011.473  7011.460  0.500  0.808460  152.169  67.798  13.8092
  7013.803  7013.790  0.500  0.805794  152.156  67.9731  13.6203
  7016.210  7016.200  0.500  0.805753  152.697  68.2175  13.5203
  7018.689  7018.680  0.500  0.806634  152.681  68.1505  13.4848
  7021.250  7021.240  0.500  0.808437  152.675  68.0251  13.5695
  7023.889  7023.880  0.500  0.807086  152.655  68.1079  13.7718
  7026.613  7026.600  0.500  0.803553  152.641  68.3427  14.0211
  7029.403  7029.390  0.500  0.802910  152.627  68.3806  14.2054
  7032.257  7032.250  0.500  0.806644  152.591  68.1094  14.2748
  7035.195  7035.190  0.500  0.811778  152.574  67.7533  14.2895
  7038.217  7038.210  0.500  0.814833  152.563  67.5419  14.3008
  7041.320  7041.310  0.500  0.816112  152.55  67.4494  14.3176
  7044.490  7044.480  0.500  0.813524  152.511  67.6072  14.3612
  7047.746  7047.730  0.500  0.804589  152.485  68.2021  14.4737
  7051.057  7051.050  0.500  0.793283  152.461  68.9667  14.5992
  7054.460  7054.450  0.500  0.786782  152.466  69.419  14.6483
  7057.941  7057.930  0.500  0.784142  152.442  69.5916  14.6371
  7061.490  7061.480  0.500  0.784443  152.456  69.5768  14.6063
  7065.122  7065.110  0.500  0.784172  152.324  69.5357  14.5954
  7068.815  7068.810  0.500  0.783259  152.324  69.5991  14.6305
  7072.598  7072.590  0.500  0.782038  152.274  69.6612  14.6893
  7076.452  7076.450  0.500  0.782053  152.105  69.5829  14.7244
  7080.386  7080.380  0.500  0.780166  152.223  69.7684  14.8124
  7084.400  7084.390  0.500  0.780142  152.032  69.6824  14.8402
  7088.494  7088.480  0.500  0.780877  152.111  69.6675  14.8855
  7092.647  7092.640  0.500  0.778769  152.057  69.7896  14.9685
  7096.893  7096.880  0.500  0.775211  152.028  70.025  15.0901
  7101.202  7101.190  0.500  0.770091  152.011  70.3769  15.2405
  7105.593  7105.580  0.500  0.763398  151.974  70.8321  15.4179
  7110.058  7110.050  0.500  0.757654  151.877  71.1947  15.5559
  7114.600  7114.590  0.500  0.754104  151.594  71.3146  15.5937
  7119.224  7119.210  0.500  0.753212  151.458  71.3144  15.5764
  7123.912  7123.900  0.500  0.754361  151.283  71.1502  15.5254
[...]
  7175.059  7175.050  0.500  0.725566  150.349  72.7764  16.315
  7180.596  7180.580  0.500  0.724056  150.285  72.8557  16.3809
  7186.198  7186.190  0.500  0.722913  150.198  72.8966  16.4527
  7191.885  7191.870  0.500  0.719880  147.881  71.9898  16.3164
  7197.655  7197.640  0.500  0.716040  149.944  73.2751  16.6774
  7203.479  7203.470  0.500  0.712416  149.843  73.4919  16.783
  7209.406  7209.390  0.500  0.708937  149.685  73.6702  16.8637
  7215.394  7215.380  0.500  0.705323  149.565  73.8775  16.9416
  7221.463  7221.450  0.500  0.701405  149.413  74.0919  17.0221
  7227.602  7227.590  0.500  0.697897  147.205  73.2539  16.873
  7233.823  7233.810  0.500  0.694607  149.281  74.5318  17.226
  7240.109  7240.100  0.500  0.692042  149.159  74.6618  17.3247
  7246.480  7246.470  0.500  0.689461  148.859  74.7045  17.4059
  7252.934  7252.920  0.500  0.686068  148.72  74.8884  17.523
  7259.465  7259.450  0.500  0.682174  148.773  75.207  17.6698
  7266.057  7266.050  0.500  0.678886  148.292  75.2108  17.7323
  7272.729  7272.720  0.500  0.674546  148.946  75.8711  17.9459
  7279.475  7279.470  0.500  0.670309  149.101  76.2726  18.0932
  7286.306  7286.300  0.500  0.666471  148.765  76.3934  18.1845
  7293.221  7293.210  0.500  0.662924  148.794  76.6799  18.3238
  7300.201  7300.190  0.500  0.659857  148.441  76.733  18.418
  7307.256  7307.250  0.500  0.656052  148.636  77.1267  18.5875
  7314.387  7314.380  0.500  0.652156  148.466  77.3389  18.7084
  7321.594  7321.590  0.500  0.648422  148.31  77.5471  18.8267
  7328.886  7328.880  0.500  0.644939  148.162  77.74  18.9401
  7336.248  7336.240  0.500  0.641556  148.03  77.9335  19.0496
  7343.695  7343.680  0.500  0.637645  147.776  78.105  19.1618
  7351.203  7351.190  0.500  0.633358  147.672  78.3853  19.3039
  7358.792  7358.780  0.500  0.629376  147.505  78.609  19.4386
  7366.461  7366.450  0.500  0.624838  147.338  78.8771  19.5894
  7374.203  7374.190  0.500  0.621295  147.183  79.0739  19.7246
  7382.024  7382.010  0.500  0.617555  146.988  79.2648  19.8604
  7389.930  7389.910  0.500  0.613095  146.817  79.5266  20.0114
  7397.900  7397.880  0.500  0.609080  146.651  79.7562  20.1565
  7405.960  7405.930  0.500  0.605162  146.455  79.9622  20.2911
  7414.068  7414.050  0.500  0.601147  146.231  80.1614  20.4191
  7422.271  7422.250  0.500  0.597156  146.001  80.3549  20.5464
  7430.564  7430.530  0.500  0.592997  145.783  80.5696  20.6861
  7438.915  7438.880  0.500  0.588574  145.547  80.7959  20.8382
  7447.328  7447.310  0.500  0.584164  145.417  81.0802  21.005
  7455.810  7455.810  0.500  0.579915  145.164  81.2838  21.1502
  7464.379  7464.390  0.500  0.575485  144.891  81.4914  21.3036
  7473.051  7473.050  0.500  0.571245  144.751  81.7588  21.4715
  7481.773  7481.790  0.500  0.567285  144.452  81.9135  21.6081
  7490.609  7490.600  0.500  0.563314  144.169  82.078  21.7418
  7499.469  7499.480  0.500  0.558621  143.915  82.3192  21.8957
  7508.447  7508.440  0.500  0.554310  143.61  82.4992  22.0369
  7517.469  7517.480  0.500  0.549768  143.876  83.0284  22.2817
  7526.579  7526.600  0.500  0.545120  143.572  83.2393  22.4491
  7535.779  7535.790  0.500  0.540792  143.251  83.413  22.6107
  7545.034  7545.060  0.500  0.536227  142.933  83.6087  22.7783
  7554.381  7554.400  0.500  0.531723  142.632  83.8097  22.941
  7563.850  7563.820  0.500  0.527329  142.279  83.9699  23.0919
  7573.338  7573.310  0.500  0.523261  141.99  84.1413  23.2405
  7582.878  7582.890  0.500  0.518912  141.634  84.2961  23.3835
  7592.553  7592.530  0.500  0.514973  141.195  84.3664  23.4993