Folder: webxdiviewer/xdidata/Eu (part 2)

File: Eu-L3-Eu2O3-m.xdi
# XDI/1.0 BlueSky/1.10.0 BMM/2023-1.0-py310-tiled
# Beamline.name: BMM (06BM) -- Beamline for Materials Measurement (NIST)
# Beamline.xray_source: NSLS-II three-pole wiggler
# Beamline.collimation: paraboloid mirror, 5 nm Rh on 30 nm Pt
# Beamline.focusing: not in use
# Beamline.harmonic_rejection: flat mirror, Si stripe, pitch = 7.0 mrad relative to beam
# Beamline.software: Bluesky 1.10.0, Ophyd 1.7.0, DataBroker 2.0.0b13, Python 3.10.8, 2023-1.0-py310-tiled
# Detector.I0: 10 cm N2
# Detector.I1: 25 cm N2
# Detector.I2: 25 cm N2
# Element.symbol: Eu
# Element.edge: L3
# Element.reference: Eu
# Element.reference_material: Eu2O3
# Facility.name: NSLS-II
# Facility.energy: 3.0
# Facility.current: 400.6
# Facility.mode: top-off
# Facility.GUP: 123456
# Facility.SAF: 301027
# Facility.cycle: 2023-2
# Mono.name: Si(111)
# Mono.d_spacing: 3.13519
# Mono.encoder_resolution: 0.0000050 deg/ct
# Mono.angle_offset: 16.0754 deg
# Mono.scan_mode: pseudo channel cut
# Mono.scan_type: step
# Mono.direction: forward in energy
# Sample.name: monoclinic Eu2O3
# Sample.prep: Powder in PEG pellet
# Sample.x: 123.848 mm
# Sample.y: 114.690 mm
# Sample.SDD_position: 205.000 mm
# Scan.experimenters: Bruce Ravel
# Scan.edge_energy: 6976.9
# Scan.start_time: 2023-05-08T17:27:10
# Scan.end_time: 2023-05-08T17:33:22
# Scan.transient_id: 75446
# Scan.uid: 143901b7-55d4-48b3-8fb7-0874baeea466
# Scan.plot_hint: ln(I0/It)  --  ln($5/$6)
# Column.1: energy eV
# Column.2: requested_energy eV
# Column.3: measurement_time seconds
# Column.4: xmu
# Column.5: I0 nA
# Column.6: It nA
# Column.7: Ir nA
# ///////////
# sample courtesy Martin Stennett, University of Sheffield
# -----------
# energy  requested_energy  measurement_time  xmu  I0  It  Ir
  6776.898  6776.900  0.500  1.708306  151.879  27.5162  6.796956
  6796.974  6796.900  0.500  1.687846  151.111  27.9431  6.987618
  6816.919  6816.900  0.500  1.667675  152.019  28.6837  7.260974
  6836.914  6836.900  0.500  1.647937  152.236  29.2972  7.506606
  6856.908  6856.900  0.500  1.628008  152.097  29.8598  7.741501
  6876.894  6876.900  0.500  1.608848  152.438  30.5055  8.002290
  6896.889  6896.900  0.500  1.590601  152.576  31.0955  8.249252
  6916.896  6916.900  0.500  1.572487  152.53  31.6543  8.490150
  6936.899  6936.900  0.500  1.556200  152.489  32.1654  8.714869
  6948.893  6948.900  0.500  1.550671  152.499  32.346  8.805073
  6952.887  6952.900  0.500  1.550844  152.513  32.3433  8.810920
  6956.888  6956.900  0.500  1.552494  152.508  32.2889  8.796173
  6960.886  6960.900  0.500  1.557255  152.518  32.1377  8.744201
  6964.891  6964.900  0.500  1.569273  152.537  31.7576  8.605764
  6967.382  6967.400  0.500  1.585745  152.533  31.238  8.411956
  6968.383  6968.400  0.500  1.596369  152.527  30.9067  8.289366
  6969.384  6969.400  0.500  1.610579  152.505  30.4662  8.126733
  6970.383  6970.400  0.500  1.625902  152.519  30.0056  7.956358
  6971.382  6971.400  0.500  1.642487  152.514  29.5113  7.775361
  6972.386  6972.400  0.500  1.667066  152.504  28.7929  7.514464
  6973.388  6973.400  0.500  1.705424  152.495  27.7076  7.122479
  6974.389  6974.400  0.500  1.759033  152.49  26.2606  6.610527
  6975.387  6975.400  0.500  1.827079  152.49  24.5331  6.013660
  6976.392  6976.400  0.500  1.924736  152.479  22.2489  5.247725
  6977.398  6977.400  0.500  2.067346  152.472  19.2909  4.291070
  6978.389  6978.400  0.500  2.280747  152.474  15.5841  3.164111
  6979.397  6979.400  0.500  2.569088  152.469  11.6799  2.071635
  6980.399  6980.400  0.500  2.868078  152.455  8.660679  1.304906
  6981.398  6981.400  0.500  3.086333  152.454  6.962430  0.916277
  6982.394  6982.400  0.500  3.203125  152.438  6.194313  0.749896
  6983.401  6983.400  0.500  3.202583  152.441  6.197802  0.746694
  6984.399  6984.400  0.500  3.094929  152.424  6.901470  0.896979
  6985.394  6985.400  0.500  2.924707  152.412  8.181528  1.188440
  6986.400  6986.400  0.500  2.727678  152.428  9.964359  1.619399
  6987.398  6987.400  0.500  2.555236  152.399  11.8374  2.097023
  6988.394  6988.400  0.500  2.418580  152.389  13.5699  2.557861
  6989.401  6989.400  0.500  2.325417  152.385  14.8945  2.924043
  6990.404  6990.400  0.500  2.264248  152.382  15.8337  3.190499
  6991.402  6991.400  0.500  2.230070  152.371  16.383  3.355673
  6992.403  6992.400  0.500  2.210245  152.368  16.7108  3.460787
  6993.403  6993.400  0.500  2.198759  152.365  16.9035  3.528517
  6994.405  6994.400  0.500  2.190706  152.351  17.0386  3.576059
  6995.404  6995.400  0.500  2.185448  152.338  17.127  3.606849
  6996.402  6996.400  0.500  2.181568  152.337  17.1935  3.625095
  6997.406  6997.400  0.500  2.179381  152.322  17.2294  3.635164
  6998.405  6998.400  0.500  2.178173  152.307  17.2485  3.639423
  6999.400  6999.400  0.500  2.177697  152.314  17.2575  3.645700
  7000.400  7000.400  0.500  2.177421  152.314  17.2623  3.652436
  7001.409  7001.400  0.500  2.176719  152.305  17.2734  3.661990
  7002.893  7002.890  0.500  2.172493  152.278  17.3434  3.684537
  7004.920  7004.910  0.500  2.168307  152.287  17.4173  3.698341
  7007.036  7007.020  0.500  2.176646  152.301  17.2742  3.637558
  7009.213  7009.200  0.500  2.198620  152.254  16.8936  3.503389
  7011.475  7011.460  0.500  2.230282  152.249  16.3665  3.334238
  7013.811  7013.790  0.500  2.265562  152.222  15.7964  3.165679
  7016.189  7016.200  0.500  2.294458  152.193  15.3435  3.042597
  7018.670  7018.680  0.500  2.304790  152.188  15.1852  3.005958
  7021.231  7021.240  0.500  2.290819  152.167  15.3968  3.072467
  7023.877  7023.880  0.500  2.260672  152.137  15.8649  3.208875
  7026.600  7026.600  0.500  2.228299  152.128  16.386  3.362506
  7029.399  7029.390  0.500  2.205107  152.121  16.7696  3.484938
  7032.259  7032.250  0.500  2.191999  152.084  16.9868  3.561220
  7035.195  7035.190  0.500  2.186196  152.054  17.0823  3.603413
  7038.223  7038.210  0.500  2.185597  152.653  17.1598  3.634729
  7041.320  7041.310  0.500  2.184502  152.649  17.1781  3.647508
  7044.484  7044.480  0.500  2.182399  152.629  17.2121  3.657224
  7047.739  7047.730  0.500  2.179991  152.588  17.249  3.661412
  7051.055  7051.050  0.500  2.177923  152.561  17.2816  3.658790
  7054.452  7054.450  0.500  2.177672  152.563  17.2862  3.647912
  7057.939  7057.930  0.500  2.181220  152.556  17.2241  3.623291
  7061.488  7061.480  0.500  2.184704  152.574  17.1663  3.604209
  7065.116  7065.110  0.500  2.183548  152.453  17.1725  3.605162
  7068.821  7068.810  0.500  2.182893  152.423  17.1803  3.612791
  7072.605  7072.590  0.500  2.184403  152.397  17.1515  3.617663
  7076.467  7076.450  0.500  2.183961  152.239  17.1413  3.627646
  7080.390  7080.380  0.500  2.181756  152.358  17.1926  3.650351
  7084.397  7084.390  0.500  2.176768  152.163  17.2564  3.676319
  7088.488  7088.480  0.500  2.169743  152.248  17.3877  3.716369
  7092.647  7092.640  0.500  2.161489  152.188  17.525  3.759177
  7096.893  7096.880  0.500  2.151438  152.153  17.698  3.814203
  7101.206  7101.190  0.500  2.139765  152.123  17.9022  3.877956
  7105.587  7105.580  0.500  2.130759  152.105  18.0621  3.932601
  7110.061  7110.050  0.500  2.127226  152.01  18.1147  3.958303
  7114.603  7114.590  0.500  2.128173  151.729  18.0641  3.950790
[...]
  7180.587  7180.580  0.500  2.081020  150.373  18.7669  4.220089
  7186.200  7186.190  0.500  2.072406  150.298  18.9199  4.270547
  7191.876  7191.870  0.500  2.064937  147.96  18.7652  4.253441
  7197.651  7197.640  0.500  2.057745  150.043  19.1667  4.362546
  7203.477  7203.470  0.500  2.054073  149.943  19.2245  4.390733
  7209.399  7209.390  0.500  2.050596  149.784  19.271  4.412332
  7215.387  7215.380  0.500  2.047267  149.664  19.3197  4.430461
  7221.456  7221.450  0.500  2.043112  149.525  19.3821  4.452587
  7227.602  7227.590  0.500  2.037523  147.21  19.189  4.420400
  7233.821  7233.810  0.500  2.031442  149.389  19.5918  4.528007
  7240.107  7240.100  0.500  2.024913  149.269  19.7043  4.571737
  7246.482  7246.470  0.500  2.017315  148.954  19.8126  4.616519
  7252.934  7252.920  0.500  2.011725  148.782  19.9008  4.656731
  7259.458  7259.450  0.500  2.007885  148.847  19.9861  4.696783
  7266.057  7266.050  0.500  2.003563  148.45  20.019  4.720881
  7272.734  7272.720  0.500  1.997692  149.002  20.2118  4.781122
  7279.489  7279.470  0.500  1.990503  149.167  20.3802  4.834685
  7286.320  7286.300  0.500  1.983369  148.837  20.4808  4.875545
  7293.241  7293.210  0.500  1.976787  148.849  20.6176  4.928021
  7300.223  7300.190  0.500  1.969723  148.476  20.7117  4.971196
  7307.267  7307.250  0.500  1.961551  148.686  20.9113  5.040751
  7314.394  7314.380  0.500  1.954670  148.524  21.0327  5.088038
  7321.610  7321.590  0.500  1.948686  148.374  21.1375  5.131523
  7328.895  7328.880  0.500  1.943383  148.221  21.228  5.173430
  7336.271  7336.240  0.500  1.938101  148.089  21.3214  5.212000
  7343.711  7343.680  0.500  1.931956  147.848  21.4179  5.254967
  7351.222  7351.190  0.500  1.925165  147.73  21.5467  5.307133
  7358.803  7358.780  0.500  1.918439  147.572  21.6689  5.358381
  7366.473  7366.450  0.500  1.910778  147.406  21.811  5.416693
  7374.208  7374.190  0.500  1.902700  147.243  21.9635  5.479628
  7382.012  7382.010  0.500  1.895321  147.051  22.0974  5.536938
  7389.913  7389.910  0.500  1.888724  146.879  22.2176  5.591056
  7397.904  7397.880  0.500  1.881663  146.707  22.3488  5.647401
  7405.927  7405.930  0.500  1.874452  146.506  22.4797  5.703491
  7414.038  7414.050  0.500  1.867854  146.303  22.5972  5.757229
  7422.261  7422.250  0.500  1.860262  146.082  22.7351  5.813908
  7430.536  7430.530  0.500  1.852828  145.866  22.8707  5.872541
  7438.887  7438.880  0.500  1.845451  145.628  23.0026  5.932950
  7447.316  7447.310  0.500  1.836934  145.494  23.1779  6.004576
  7455.824  7455.810  0.500  1.828873  145.223  23.322  6.067989
  7464.398  7464.390  0.500  1.821133  144.951  23.4593  6.132126
  7473.065  7473.050  0.500  1.813707  144.816  23.6121  6.201159
  7481.809  7481.790  0.500  1.806219  144.531  23.7427  6.263325
  7490.614  7490.600  0.500  1.799468  144.227  23.8533  6.318802
  7499.493  7499.480  0.500  1.792231  143.977  23.9849  6.379816
  7508.464  7508.440  0.500  1.784312  143.672  24.1243  6.444279
  7517.477  7517.480  0.500  1.775736  143.379  24.2824  6.516587
  7526.618  7526.600  0.500  1.766897  143.092  24.449  6.594217
  7535.779  7535.790  0.500  1.758273  142.772  24.6057  6.670279
  7545.047  7545.060  0.500  1.750027  142.447  24.7529  6.743049
  7554.379  7554.400  0.500  1.742018  142.133  24.897  6.815668
  7563.838  7563.820  0.500  1.733257  141.822  25.061  6.891614
  7573.284  7573.310  0.500  1.725142  141.505  25.2088  6.962023
  7582.868  7582.890  0.500  1.717584  141.147  25.3358  7.027204
  7592.509  7592.530  0.500  1.710820  140.839  25.452  7.089581

File: Eu-L3-Eu2Ti2O7.xdi
# XDI/1.0 BlueSky/1.10.0 BMM/2023-1.0-py310-tiled
# Beamline.name: BMM (06BM) -- Beamline for Materials Measurement (NIST)
# Beamline.xray_source: NSLS-II three-pole wiggler
# Beamline.collimation: paraboloid mirror, 5 nm Rh on 30 nm Pt
# Beamline.focusing: not in use
# Beamline.harmonic_rejection: flat mirror, Si stripe, pitch = 7.0 mrad relative to beam
# Beamline.software: Bluesky 1.10.0, Ophyd 1.7.0, DataBroker 2.0.0b13, Python 3.10.8, 2023-1.0-py310-tiled
# Detector.I0: 10 cm N2
# Detector.I1: 25 cm N2
# Detector.I2: 25 cm N2
# Element.symbol: Eu
# Element.edge: L3
# Element.reference: Eu
# Element.reference_material: Eu2O3
# Facility.name: NSLS-II
# Facility.energy: 3.0
# Facility.current: 400.6
# Facility.mode: top-off
# Facility.GUP: 123456
# Facility.SAF: 301027
# Facility.cycle: 2023-2
# Mono.name: Si(111)
# Mono.d_spacing: 3.13519
# Mono.encoder_resolution: 0.0000050 deg/ct
# Mono.angle_offset: 16.0754 deg
# Mono.scan_mode: pseudo channel cut
# Mono.scan_type: step
# Mono.direction: forward in energy
# Sample.name: Eu2Ti2O7
# Sample.prep: powder on tape
# Sample.x: 123.848 mm
# Sample.y: 114.690 mm
# Sample.SDD_position: 205.000 mm
# Scan.experimenters: Bruce Ravel
# Scan.edge_energy: 6976.9
# Scan.start_time: 2023-05-08T17:34:06
# Scan.end_time: 2023-05-08T17:40:12
# Scan.transient_id: 75451
# Scan.uid: fa181008-7ffb-4c29-aee5-fc1453098621
# Scan.plot_hint: ln(I0/It)  --  ln($5/$6)
# Column.1: energy eV
# Column.2: requested_energy eV
# Column.3: measurement_time seconds
# Column.4: xmu
# Column.5: I0 nA
# Column.6: It nA
# Column.7: Ir nA
# ///////////
# material made by Fatih Dogan
# -----------
# energy  requested_energy  measurement_time  xmu  I0  It  Ir
  6776.904  6776.900  0.500  1.025868  151.811  54.4218  13.3987
  6796.915  6796.900  0.500  1.010812  151.053  54.9716  13.7026
  6816.982  6816.900  0.500  0.996072  151.951  56.1196  14.161
  6836.906  6836.900  0.500  0.981688  152.134  57.0013  14.5575
  6856.912  6856.900  0.500  0.967509  152.011  57.7685  14.9299
  6876.916  6876.900  0.500  0.953360  152.383  58.7352  15.3605
  6896.911  6896.900  0.500  0.939338  152.589  59.645  15.7786
  6916.913  6916.900  0.500  0.925880  152.526  60.4282  16.1652
  6936.914  6936.900  0.500  0.913040  152.448  61.1776  16.5351
  6948.899  6948.900  0.500  0.906566  152.472  61.5846  16.7215
  6952.899  6952.900  0.500  0.904781  152.487  61.7008  16.7674
  6956.901  6956.900  0.500  0.903841  152.485  61.758  16.7828
  6960.897  6960.900  0.500  0.903665  152.508  61.7783  16.7693
  6964.899  6964.900  0.500  0.906054  152.483  61.6207  16.6569
  6967.386  6967.400  0.500  0.910044  152.495  61.3804  16.4924
  6968.383  6968.400  0.500  0.912463  152.492  61.2307  16.3872
  6969.388  6969.400  0.500  0.916647  152.496  60.9766  16.2297
  6970.387  6970.400  0.500  0.920889  152.488  60.7152  16.064
  6971.386  6971.400  0.500  0.925946  152.472  60.403  15.8801
  6972.390  6972.400  0.500  0.932799  152.482  59.9942  15.6222
  6973.390  6973.400  0.500  0.944482  152.474  59.2941  15.2105
  6974.389  6974.400  0.500  0.960828  152.473  58.3326  14.6528
  6975.389  6975.400  0.500  0.982460  152.47  57.083  13.964
  6976.392  6976.400  0.500  1.014717  152.456  55.2659  13.0119
  6977.396  6977.400  0.500  1.064921  152.443  52.5556  11.6675
  6978.397  6978.400  0.500  1.145352  152.419  48.4864  9.814190
  6979.389  6979.400  0.500  1.266461  152.428  42.9584  7.603248
  6980.391  6980.400  0.500  1.419932  152.406  36.8412  5.544285
  6981.396  6981.400  0.500  1.553821  152.407  32.2248  4.242420
  6982.398  6982.400  0.500  1.636730  152.397  29.6588  3.588971
  6983.395  6983.400  0.500  1.640848  152.4  29.5376  3.550886
  6984.392  6984.400  0.500  1.572221  152.386  31.6329  4.092657
  6985.396  6985.400  0.500  1.466148  152.387  35.1728  5.086134
  6986.400  6986.400  0.500  1.353682  152.391  39.3608  6.362418
  6987.394  6987.400  0.500  1.264187  152.391  43.0458  7.587706
  6988.396  6988.400  0.500  1.200549  152.404  45.8779  8.614209
  6989.391  6989.400  0.500  1.161905  152.396  47.6832  9.324489
  6990.400  6990.400  0.500  1.138251  152.382  48.8201  9.806634
  6991.395  6991.400  0.500  1.122823  152.381  49.5786  10.1244
  6992.399  6992.400  0.500  1.110217  152.371  50.2042  10.3691
  6993.405  6993.400  0.500  1.100231  152.371  50.7083  10.5557
  6994.395  6994.400  0.500  1.092405  152.356  51.1016  10.6973
  6995.404  6995.400  0.500  1.087659  152.355  51.3444  10.7825
  6996.407  6996.400  0.500  1.085302  152.356  51.4659  10.8226
  6997.401  6997.400  0.500  1.085156  152.345  51.4697  10.8276
  6998.399  6998.400  0.500  1.087652  152.336  51.3381  10.8046
  6999.402  6999.400  0.500  1.092064  152.328  51.1095  10.7691
  7000.404  7000.400  0.500  1.097767  152.32  50.8163  10.7245
  7001.402  7001.400  0.500  1.103419  152.32  50.5299  10.6841
  7002.889  7002.890  0.500  1.109248  152.309  50.2324  10.6454
  7004.912  7004.910  0.500  1.110158  152.31  50.1871  10.6299
  7007.023  7007.020  0.500  1.110303  152.286  50.1721  10.5394
  7009.205  7009.200  0.500  1.116053  152.263  49.8768  10.3196
  7011.469  7011.460  0.500  1.124894  152.241  49.4307  10.0458
  7013.807  7013.790  0.500  1.134974  152.229  48.9309  9.783994
  7016.208  7016.200  0.500  1.142006  152.203  48.5799  9.608290
  7018.691  7018.680  0.500  1.143436  152.194  48.5077  9.577467
  7021.245  7021.240  0.500  1.137571  152.191  48.7921  9.710953
  7023.885  7023.880  0.500  1.126365  152.15  49.3283  9.949259
  7026.613  7026.600  0.500  1.113098  152.137  49.9831  10.2313
  7029.399  7029.390  0.500  1.100545  152.7  50.8016  10.5291
  7032.261  7032.250  0.500  1.091798  152.667  51.2368  10.7126
  7035.205  7035.190  0.500  1.086816  152.643  51.4848  10.8329
  7038.219  7038.210  0.500  1.085100  152.648  51.575  10.8956
  7041.322  7041.310  0.500  1.086516  152.628  51.4951  10.9029
  7044.492  7044.480  0.500  1.089864  152.611  51.3173  10.8756
  7047.737  7047.730  0.500  1.095097  152.563  51.0333  10.8043
  7051.063  7051.050  0.500  1.097585  152.564  50.9068  10.7518
  7054.460  7054.450  0.500  1.095120  152.557  51.0302  10.742
  7057.943  7057.930  0.500  1.091340  152.546  51.2197  10.7468
  7061.493  7061.480  0.500  1.086431  152.541  51.4702  10.7798
  7065.120  7065.110  0.500  1.080427  152.415  51.7374  10.834
  7068.802  7068.810  0.500  1.076679  152.379  51.9194  10.8898
  7072.588  7072.590  0.500  1.076889  152.34  51.895  10.9172
  7076.458  7076.450  0.500  1.078491  152.17  51.7544  10.9249
  7080.395  7080.380  0.500  1.078913  152.298  51.7761  10.9664
  7084.408  7084.390  0.500  1.075532  152.11  51.8872  11.0254
  7088.488  7088.480  0.500  1.070160  152.186  52.1928  11.1253
  7092.650  7092.640  0.500  1.065540  152.134  52.4166  11.2171
  7096.889  7096.880  0.500  1.060407  152.097  52.6736  11.3244
  7101.191  7101.190  0.500  1.054054  152.075  53.0013  11.452
  7105.584  7105.580  0.500  1.049805  152.025  53.2095  11.5564
  7110.061  7110.050  0.500  1.049437  151.936  53.1982  11.5974
  7114.598  7114.590  0.500  1.049914  151.65  53.0728  11.5781
  7119.215  7119.210  0.500  1.049901  151.512  53.0249  11.5547
  7123.912  7123.900  0.500  1.048068  151.332  53.0591  11.552
[...]
  7175.065  7175.050  0.500  1.013636  150.365  54.567  12.2036
  7180.591  7180.580  0.500  1.009624  150.308  54.7655  12.2852
  7186.205  7186.190  0.500  1.006070  150.219  54.9281  12.3706
  7191.880  7191.870  0.500  1.001501  147.87  54.3167  12.2827
  7197.653  7197.640  0.500  0.996872  149.951  55.3368  12.5665
  7203.484  7203.470  0.500  0.992146  149.839  55.5574  12.6578
  7209.399  7209.390  0.500  0.988835  149.686  55.6848  12.7168
  7215.396  7215.380  0.500  0.985441  149.535  55.8175  12.7709
  7221.463  7221.450  0.500  0.982091  149.391  55.951  12.8271
  7227.600  7227.590  0.500  0.979029  147.161  55.2847  12.7064
  7233.823  7233.810  0.500  0.975677  149.271  56.2656  12.9755
  7240.116  7240.100  0.500  0.970940  149.151  56.4874  13.0785
  7246.484  7246.470  0.500  0.965771  148.831  56.6583  13.172
  7252.927  7252.920  0.500  0.961050  148.681  56.8693  13.2763
  7259.456  7259.450  0.500  0.956833  148.727  57.1271  13.3916
  7266.059  7266.050  0.500  0.952876  148.274  57.179  13.4519
  7272.734  7272.720  0.500  0.949551  148.892  57.6084  13.5953
  7279.482  7279.470  0.500  0.946175  149.046  57.863  13.6974
  7286.308  7286.300  0.500  0.942222  148.716  57.9637  13.7686
  7293.214  7293.210  0.500  0.938218  148.731  58.202  13.8797
  7300.194  7300.190  0.500  0.933536  148.367  58.3322  13.9703
  7307.256  7307.250  0.500  0.928485  148.567  58.7065  14.1164
  7314.391  7314.380  0.500  0.922824  148.386  58.9679  14.2347
  7321.598  7321.590  0.500  0.918138  148.232  59.1835  14.3377
  7328.884  7328.880  0.500  0.913567  148.096  59.3998  14.4409
  7336.244  7336.240  0.500  0.909354  147.954  59.5934  14.5372
  7343.686  7343.680  0.500  0.905025  147.719  59.7571  14.6275
  7351.199  7351.190  0.500  0.900760  147.598  59.9634  14.7343
  7358.785  7358.780  0.500  0.896491  147.455  60.1616  14.8456
  7366.464  7366.450  0.500  0.892004  147.287  60.3634  14.9593
  7374.205  7374.190  0.500  0.886930  147.134  60.6074  15.0866
  7382.024  7382.010  0.500  0.881860  146.947  60.8377  15.2114
  7389.932  7389.910  0.500  0.876876  146.781  61.0729  15.3365
  7397.895  7397.880  0.500  0.871571  146.62  61.3301  15.4674
  7405.962  7405.930  0.500  0.866756  146.418  61.5416  15.5836
  7414.064  7414.050  0.500  0.862563  146.197  61.7065  15.6846
  7422.263  7422.250  0.500  0.857922  145.999  61.9099  15.7968
  7430.527  7430.530  0.500  0.853141  145.779  62.1129  15.9165
  7438.910  7438.880  0.500  0.848306  145.55  62.3159  16.0375
  7447.342  7447.310  0.500  0.842482  145.396  62.6132  16.1881
  7455.836  7455.810  0.500  0.836986  145.127  62.842  16.3192
  7464.381  7464.390  0.500  0.831572  144.878  63.0746  16.4554
  7473.053  7473.050  0.500  0.826676  144.741  63.3243  16.5963
  7481.825  7481.790  0.500  0.821510  144.44  63.5198  16.7232
  7490.592  7490.600  0.500  0.816934  144.137  63.6777  16.8347
  7499.474  7499.480  0.500  0.811837  143.884  63.8906  16.9601
  7508.421  7508.440  0.500  0.806940  143.572  64.0648  17.0782
  7517.467  7517.480  0.500  0.801613  143.282  64.2772  17.2156
  7526.581  7526.600  0.500  0.795993  142.992  64.5086  17.363
  7535.782  7535.790  0.500  0.790432  142.662  64.7185  17.5096
  7545.098  7545.060  0.500  0.784873  142.352  64.9379  17.6577
  7554.413  7554.400  0.500  0.779625  142.546  65.3683  17.8599
  7563.833  7563.820  0.500  0.774345  142.234  65.5706  17.9982
  7573.335  7573.310  0.500  0.768688  141.915  65.7948  18.1389
  7582.909  7582.890  0.500  0.763440  141.558  65.9746  18.2677
  7592.543  7592.530  0.500  0.758699  141.136  66.0906  18.3737