Folder: webxdiviewer/xdidata/Eu

Note: xdidata/README.md
# bmm-standards
A pretty webpage for BMM's collection of common XAFS materials

[BMM's common materials collection](./BMM-standards.html)

Plotting of the data will happen soon.

Periodic table adapted from [some guy named Daniel](https://codepen.io/gooseofmusic/pen/PjKdNQ)

[This](https://www.coderstool.com/scss-to-css) is a helpful tool for
dealing with Sassy CSS.

File: Eu-L1-Eu2TiO5.xdi
# XDI/1.0 BlueSky/1.10.0 BMM/2023-1.0-py310-tiled
# Beamline.name: BMM (06BM) -- Beamline for Materials Measurement (NIST)
# Beamline.xray_source: NSLS-II three-pole wiggler
# Beamline.collimation: paraboloid mirror, 5 nm Rh on 30 nm Pt
# Beamline.focusing: not in use
# Beamline.harmonic_rejection: flat mirror, Pt stripe, pitch = 7.0 mrad relative to beam
# Beamline.software: Bluesky 1.10.0, Ophyd 1.7.0, DataBroker 2.0.0b13, Python 3.10.8, 2023-1.0-py310-tiled
# Detector.I0: 10 cm N2
# Detector.I1: 25 cm N2
# Detector.I2: 25 cm N2
# Element.symbol: Eu
# Element.edge: L1
# Element.reference: Eu
# Element.reference_material: Eu2O3
# Facility.name: NSLS-II
# Facility.energy: 3.0
# Facility.current: 400.4
# Facility.mode: top-off
# Facility.GUP: 123456
# Facility.SAF: 301027
# Facility.cycle: 2023-2
# Mono.name: Si(111)
# Mono.d_spacing: 3.13519
# Mono.encoder_resolution: 0.0000050 deg/ct
# Mono.angle_offset: 16.0754 deg
# Mono.scan_mode: pseudo channel cut
# Mono.scan_type: step
# Mono.direction: forward in energy
# Sample.name: Eu2TiO5
# Sample.prep: Powder in PEG pellet
# Sample.x: 149.848 mm
# Sample.y: 114.690 mm
# Sample.SDD_position: 205.000 mm
# Scan.experimenters: Bruce Ravel
# Scan.edge_energy: 8052.0
# Scan.start_time: 2023-05-08T21:29:21
# Scan.end_time: 2023-05-08T21:35:01
# Scan.transient_id: 75630
# Scan.uid: c1c7b99c-46d2-41bf-b604-c7d463b6f27a
# Scan.plot_hint: ln(I0/It)  --  ln($5/$6)
# Column.1: energy eV
# Column.2: requested_energy eV
# Column.3: measurement_time seconds
# Column.4: xmu
# Column.5: I0 nA
# Column.6: It nA
# Column.7: Ir nA
# ///////////
# sample courtesy Martin Stennett, University of Sheffield
# -----------
# energy  requested_energy  measurement_time  xmu  I0  It  Ir
  7852.008  7852.000  0.500  0.841773  136.214  58.7008  15.8318
  7872.077  7872.000  0.500  0.831951  135.869  59.1301  16.0571
  7892.090  7892.000  0.500  0.822479  135.554  59.5544  16.3229
  7912.016  7912.000  0.500  0.813659  135.132  59.895  16.5553
  7932.033  7932.000  0.500  0.804221  134.616  60.232  16.7807
  7952.028  7952.000  0.500  0.794903  134.058  60.5438  17.0127
  7972.012  7972.000  0.500  0.786034  133.897  61.01  17.2721
  7992.011  7992.000  0.500  0.776875  133.433  61.3581  17.5014
  8012.012  8012.000  0.500  0.768181  132.999  61.6923  17.736
  8024.003  8024.000  0.500  0.763326  132.695  61.8509  17.8602
  8027.999  8028.000  0.500  0.761385  132.612  61.9323  17.9109
  8032.001  8032.000  0.500  0.759637  132.515  61.9954  17.953
  8036.496  8036.000  0.500  0.757963  132.371  62.0319  17.9861
  8040.026  8040.000  0.500  0.756417  132.284  62.0869  18.0184
  8042.485  8042.500  0.500  0.755313  132.24  62.135  18.0397
  8043.484  8043.500  0.500  0.754977  132.188  62.1312  18.0414
  8044.489  8044.500  0.500  0.754677  132.189  62.1503  18.0478
  8045.488  8045.500  0.500  0.754285  132.122  62.1432  18.0455
  8046.488  8046.500  0.500  0.753798  132.112  62.1688  18.0555
  8047.488  8047.500  0.500  0.753533  132.069  62.1651  18.0518
  8048.486  8048.500  0.500  0.753428  132.054  62.1642  18.0475
  8049.486  8049.500  0.500  0.753042  132.031  62.1778  18.0438
  8050.487  8050.500  0.500  0.752768  132.031  62.1948  18.0345
  8051.494  8051.500  0.500  0.752571  131.945  62.1665  18.0114
  8052.489  8052.500  0.500  0.752653  131.909  62.1442  17.9793
  8053.485  8053.500  0.500  0.752483  131.847  62.1259  17.9351
  8054.485  8054.500  0.500  0.752565  131.758  62.0789  17.865
  8055.492  8055.500  0.500  0.752859  131.667  62.0174  17.7874
  8056.495  8056.500  0.500  0.753135  131.427  61.8873  17.6925
  8057.494  8057.500  0.500  0.753356  130.424  61.4015  17.5027
  8058.489  8058.500  0.500  0.753462  126.005  59.3147  16.8641
  8059.487  8059.500  0.500  0.753821  130.952  61.6212  17.4651
  8060.496  8060.500  0.500  0.754082  131.945  62.0724  17.5332
  8061.496  8061.500  0.500  0.754519  131.874  62.0119  17.4479
  8062.503  8062.500  0.500  0.754995  131.805  61.95  17.3442
  8063.496  8063.500  0.500  0.755393  132.245  62.1321  17.2972
  8064.498  8064.500  0.500  0.755795  132.188  62.0803  17.1744
  8065.491  8065.500  0.500  0.756891  132.123  61.9816  17.0365
  8066.496  8066.500  0.500  0.757518  132.044  61.9061  16.9197
  8067.501  8067.500  0.500  0.758028  131.885  61.7998  16.8176
  8068.501  8068.500  0.500  0.758078  131.715  61.7173  16.7448
  8069.501  8069.500  0.500  0.757638  129.571  60.7394  16.4566
  8070.494  8070.500  0.500  0.757529  127.483  59.7671  16.186
  8071.497  8071.500  0.500  0.756995  131.866  61.8551  16.7576
  8072.503  8072.500  0.500  0.756544  131.951  61.9226  16.7892
  8073.502  8073.500  0.500  0.756196  131.943  61.9407  16.8093
  8074.495  8074.500  0.500  0.755651  131.875  61.9421  16.8286
  8075.491  8075.500  0.500  0.755522  131.81  61.9197  16.8416
  8076.490  8076.500  0.500  0.754970  131.71  61.9071  16.8567
  8077.992  8077.990  0.500  0.754128  131.273  61.7537  16.8463
  8080.017  8080.010  0.500  0.753146  129.244  60.859  16.6513
  8082.127  8082.120  0.500  0.751323  131.677  62.1174  17.0605
  8084.311  8084.300  0.500  0.749253  131.597  62.2085  17.1673
  8086.563  8086.560  0.500  0.747379  131.501  62.2796  17.2702
  8088.897  8088.890  0.500  0.745681  131.245  62.2643  17.3383
  8091.300  8091.300  0.500  0.744210  125.857  59.7959  16.7027
  8093.784  8093.780  0.500  0.743228  131.59  62.581  17.5227
  8096.341  8096.340  0.500  0.742299  131.46  62.5773  17.5507
  8098.991  8098.980  0.500  0.741567  131.356  62.5736  17.56
  8101.715  8101.700  0.500  0.740802  131.299  62.5945  17.5604
  8104.497  8104.490  0.500  0.740081  131.16  62.5731  17.5387
  8107.365  8107.350  0.500  0.738955  131.108  62.6189  17.5333
  8110.304  8110.290  0.500  0.738015  131.012  62.632  17.5196
  8113.320  8113.310  0.500  0.736968  130.956  62.6706  17.5159
  8116.426  8116.410  0.500  0.736232  130.861  62.6715  17.508
  8119.586  8119.580  0.500  0.735043  130.772  62.7031  17.5189
  8122.844  8122.830  0.500  0.733637  130.651  62.7335  17.5469
  8126.167  8126.150  0.500  0.731986  130.591  62.8081  17.6
  8129.560  8129.550  0.500  0.730436  130.471  62.8476  17.6579
  8133.039  8133.030  0.500  0.728935  130.433  62.9238  17.7345
  8136.597  8136.580  0.500  0.727043  130.307  62.9822  17.7986
  8140.227  8140.210  0.500  0.725325  130.227  63.0515  17.8575
  8143.916  8143.910  0.500  0.723276  130.085  63.112  17.9061
  8147.692  8147.690  0.500  0.721768  130.023  63.1772  17.9505
  8151.559  8151.550  0.500  0.720477  129.885  63.1916  17.978
  8155.490  8155.480  0.500  0.718810  129.791  63.2514  18.0296
  8159.508  8159.490  0.500  0.717322  129.699  63.3007  18.0763
  8163.598  8163.580  0.500  0.715350  129.593  63.3734  18.1337
  8167.752  8167.740  0.500  0.713676  129.507  63.4378  18.1838
  8171.988  8171.980  0.500  0.712096  129.399  63.4852  18.2258
  8176.300  8176.290  0.500  0.710468  129.281  63.5304  18.2661
  8180.688  8180.680  0.500  0.709109  129.193  63.5738  18.2997
  8185.162  8185.150  0.500  0.707355  129.093  63.636  18.3347
  8189.698  8189.690  0.500  0.705611  129.011  63.7063  18.3752
  8194.331  8194.310  0.500  0.703641  128.886  63.7705  18.4272
  8199.016  8199.000  0.500  0.701511  128.729  63.8283  18.484
[...]
  8213.574  8213.550  0.500  0.695593  128.331  64.0086  18.669
  8218.562  8218.550  0.500  0.693472  128.247  64.1026  18.7373
  8223.623  8223.620  0.500  0.691279  128.131  64.1853  18.7936
  8228.778  8228.770  0.500  0.689140  127.995  64.2546  18.8411
  8234.014  8234.000  0.500  0.686981  127.867  64.3287  18.8979
  8239.328  8239.310  0.500  0.685275  127.753  64.3812  18.9498
  8244.712  8244.690  0.500  0.682879  127.615  64.4659  19.0123
  8250.165  8250.150  0.500  0.680932  127.481  64.5237  19.0724
  8255.690  8255.680  0.500  0.678517  127.322  64.5992  19.1402
  8261.310  8261.290  0.500  0.676477  127.175  64.6562  19.2019
  8266.990  8266.970  0.500  0.674525  127.021  64.7045  19.2581
  8272.758  8272.740  0.500  0.672174  126.862  64.7756  19.3172
  8278.587  8278.570  0.500  0.669911  125.244  64.0939  19.1521
  8284.510  8284.490  0.500  0.667352  126.536  64.9211  19.4368
  8290.500  8290.480  0.500  0.664851  126.411  65.0198  19.5071
  8296.565  8296.550  0.500  0.662464  126.197  65.0645  19.5682
  8302.709  8302.690  0.500  0.659941  126.046  65.1508  19.644
  8308.931  8308.910  0.500  0.657528  125.879  65.2216  19.7135
  8315.219  8315.200  0.500  0.655269  125.708  65.2804  19.7812
  8321.590  8321.570  0.500  0.652864  125.533  65.3466  19.8496
  8328.032  8328.020  0.500  0.650209  125.346  65.4228  19.9205
  8334.564  8334.550  0.500  0.647832  124.994  65.3944  19.9568
  8341.163  8341.150  0.500  0.645221  124.735  65.4294  20.0113
  8347.833  8347.820  0.500  0.642766  124.425  65.4269  20.0625
  8354.579  8354.570  0.500  0.640062  123.956  65.3568  20.0884
  8361.409  8361.400  0.500  0.637446  123.823  65.4577  20.1655
  8368.319  8368.310  0.500  0.634990  123.684  65.5452  20.2522
  8375.305  8375.290  0.500  0.632556  123.458  65.5851  20.3177
  8382.359  8382.350  0.500  0.629994  123.278  65.6572  20.3897
  8389.495  8389.480  0.500  0.627156  122.923  65.6541  20.436
  8396.696  8396.690  0.500  0.624435  122.683  65.7046  20.5038
  8404.002  8403.980  0.500  0.621514  122.446  65.7693  20.573
  8411.344  8411.340  0.500  0.618890  122.234  65.8281  20.6497
  8418.798  8418.780  0.500  0.616139  121.957  65.8601  20.7131
  8426.300  8426.290  0.500  0.613389  121.743  65.9253  20.7905
  8433.904  8433.880  0.500  0.610631  121.452  65.9492  20.8564
  8441.565  8441.550  0.500  0.607762  121.223  66.0143  20.9363
  8449.311  8449.290  0.500  0.605279  121.373  66.2601  21.0733
  8457.127  8457.110  0.500  0.602563  121.116  66.3  21.1456
  8465.031  8465.010  0.500  0.599405  120.801  66.3364  21.2136
  8473.000  8472.980  0.500  0.596477  120.535  66.3844  21.2902
  8481.056  8481.030  0.500  0.593510  120.24  66.4189  21.3591
  8489.164  8489.150  0.500  0.590580  119.925  66.4393  21.4253
  8497.378  8497.350  0.500  0.587853  119.624  66.4534  21.489
  8505.649  8505.630  0.500  0.584960  119.312  66.472  21.5564
  8513.999  8513.980  0.500  0.581780  118.999  66.509  21.6328
  8522.437  8522.410  0.500  0.578924  118.531  66.4369  21.671
  8530.933  8530.910  0.500  0.575833  102.707  57.7455  18.8932
  8539.503  8539.490  0.500  0.572783  118.4  66.772  21.9074
  8548.172  8548.150  0.500  0.569937  118.03  66.7534  21.9657
  8556.907  8556.890  0.500  0.566747  117.653  66.7526  22.0286
  8565.722  8565.700  0.500  0.563975  117.404  66.7961  22.1074
  8574.598  8574.580  0.500  0.560710  117.108  66.8455  22.1895
  8583.562  8583.540  0.500  0.557871  116.754  66.8331  22.253
  8592.593  8592.580  0.500  0.553834  105.324  60.534  20.2198
  8597.149  8597.130  0.500  0.553004  115.368  66.3621  22.1998

File: Eu-L1-EuTiO3.xdi
# XDI/1.0 BlueSky/1.10.0 BMM/2023-1.0-py310-tiled
# Beamline.name: BMM (06BM) -- Beamline for Materials Measurement (NIST)
# Beamline.xray_source: NSLS-II three-pole wiggler
# Beamline.collimation: paraboloid mirror, 5 nm Rh on 30 nm Pt
# Beamline.focusing: not in use
# Beamline.harmonic_rejection: flat mirror, Pt stripe, pitch = 7.0 mrad relative to beam
# Beamline.software: Bluesky 1.10.0, Ophyd 1.7.0, DataBroker 2.0.0b13, Python 3.10.8, 2023-1.0-py310-tiled
# Detector.I0: 10 cm N2
# Detector.I1: 25 cm N2
# Detector.I2: 25 cm N2
# Element.symbol: Eu
# Element.edge: L1
# Element.reference: Eu
# Element.reference_material: Eu2O3
# Facility.name: NSLS-II
# Facility.energy: 3.0
# Facility.current: 399.7
# Facility.mode: top-off
# Facility.GUP: 123456
# Facility.SAF: 301027
# Facility.cycle: 2023-2
# Mono.name: Si(111)
# Mono.d_spacing: 3.13519
# Mono.encoder_resolution: 0.0000050 deg/ct
# Mono.angle_offset: 16.0754 deg
# Mono.scan_mode: pseudo channel cut
# Mono.scan_type: step
# Mono.direction: forward in energy
# Sample.name: EuTiO3
# Sample.prep: powder on tape
# Sample.x: 123.848 mm
# Sample.y: 114.690 mm
# Sample.SDD_position: 205.000 mm
# Scan.experimenters: Bruce Ravel
# Scan.edge_energy: 8052.0
# Scan.start_time: 2023-05-08T21:16:24
# Scan.end_time: 2023-05-08T21:22:07
# Scan.transient_id: 75620
# Scan.uid: 0175248d-1dd9-40d1-bf32-ab81e7edd67c
# Scan.plot_hint: ln(I0/It)  --  ln($5/$6)
# Column.1: energy eV
# Column.2: requested_energy eV
# Column.3: measurement_time seconds
# Column.4: xmu
# Column.5: I0 nA
# Column.6: It nA
# Column.7: Ir nA
# ///////////
# material made by Fatih Dogan
# -----------
# energy  requested_energy  measurement_time  xmu  I0  It  Ir
  7852.003  7852.000  0.500  0.478305  135.768  84.1535  22.7053
  7872.022  7872.000  0.500  0.469511  135.36  84.6414  22.9934
  7892.101  7892.000  0.500  0.462166  134.937  84.9992  23.3049
  7912.065  7912.000  0.500  0.453668  134.572  85.4927  23.6401
  7932.014  7932.000  0.500  0.445387  134.078  85.8869  23.9384
  7952.019  7952.000  0.500  0.437794  133.552  86.2023  24.2323
  7972.021  7972.000  0.500  0.430219  133.285  86.6841  24.5518
  7992.014  7992.000  0.500  0.422453  132.845  87.0714  24.846
  8011.987  8012.000  0.500  0.415007  132.43  87.4483  25.1527
  8024.009  8024.000  0.500  0.411055  132.306  87.7126  25.3414
  8028.001  8028.000  0.500  0.409490  132.191  87.7733  25.3961
  8031.995  8032.000  0.500  0.408099  132.092  87.8297  25.4439
  8035.996  8036.000  0.500  0.407122  131.968  87.8329  25.4745
  8040.001  8040.000  0.500  0.406397  131.881  87.8387  25.5058
  8042.479  8042.500  0.500  0.406382  131.757  87.7578  25.4907
  8043.481  8043.500  0.500  0.406669  131.743  87.7229  25.4838
  8044.483  8044.500  0.500  0.406971  131.75  87.7013  25.482
  8045.483  8045.500  0.500  0.407644  131.679  87.5951  25.4512
  8046.485  8046.500  0.500  0.408814  131.638  87.4656  25.4121
  8047.480  8047.500  0.500  0.410492  131.567  87.2712  25.3544
  8048.480  8048.500  0.500  0.412388  131.537  87.0866  25.2931
  8049.483  8049.500  0.500  0.414703  131.493  86.8556  25.2143
  8050.487  8050.500  0.500  0.417814  131.424  86.5406  25.1092
  8051.488  8051.500  0.500  0.421770  131.387  86.175  24.9788
  8052.487  8052.500  0.500  0.425690  131.359  85.8195  24.8393
  8053.485  8053.500  0.500  0.429241  131.29  85.4701  24.6862
  8054.485  8054.500  0.500  0.434017  131.73  85.3478  24.5718
  8055.492  8055.500  0.500  0.440089  131.574  84.7306  24.3123
  8056.489  8056.500  0.500  0.446936  131.38  84.0288  24.0325
  8057.489  8057.500  0.500  0.451651  130.397  83.0074  23.6742
  8058.492  8058.500  0.500  0.452637  125.927  80.0829  22.7791
  8059.489  8059.500  0.500  0.449906  130.971  83.5184  23.6805
  8060.487  8060.500  0.500  0.444991  131.88  84.5126  23.8838
  8061.499  8061.500  0.500  0.439079  131.847  84.9927  23.9242
  8062.495  8062.500  0.500  0.433080  131.791  85.4673  23.9398
  8063.493  8063.500  0.500  0.428766  131.725  85.7944  23.8931
  8064.495  8064.500  0.500  0.425847  131.68  86.0157  23.8067
  8065.494  8065.500  0.500  0.424062  131.572  86.0985  23.6767
  8066.499  8066.500  0.500  0.423331  131.5  86.1142  23.5472
  8067.496  8067.500  0.500  0.423497  131.413  86.0429  23.4239
  8068.501  8068.500  0.500  0.424155  131.205  85.8504  23.3041
  8069.496  8069.500  0.500  0.425085  128.992  84.3237  22.856
  8070.496  8070.500  0.500  0.425471  127.026  83.0066  22.4921
  8071.500  8071.500  0.500  0.425746  131.32  85.789  23.2528
  8072.503  8072.500  0.500  0.425530  131.43  85.8792  23.2979
  8073.507  8073.500  0.500  0.424993  131.414  85.9151  23.329
  8074.500  8074.500  0.500  0.424493  131.339  85.9087  23.3544
  8075.494  8075.500  0.500  0.424043  131.25  85.8897  23.3741
  8076.498  8076.500  0.500  0.423280  131.19  85.9157  23.4064
  8077.998  8077.990  0.500  0.422220  130.719  85.6978  23.3905
  8080.017  8080.010  0.500  0.421319  128.785  84.5059  23.134
  8082.124  8082.120  0.500  0.421477  131.198  86.0763  23.6536
  8084.302  8084.300  0.500  0.422011  131.111  85.9731  23.7348
  8086.574  8086.560  0.500  0.423034  130.94  85.7731  23.7979
  8088.897  8088.890  0.500  0.424112  130.748  85.5547  23.8359
  8091.314  8091.300  0.500  0.423970  125.336  82.0253  22.9263
  8093.786  8093.780  0.500  0.422000  131.06  85.9403  24.0787
  8096.350  8096.340  0.500  0.419178  130.914  86.0875  24.1576
  8098.988  8098.980  0.500  0.417376  130.828  86.1863  24.1994
  8101.715  8101.700  0.500  0.417654  130.777  86.1284  24.1739
  8104.502  8104.490  0.500  0.418057  130.672  86.0249  24.1268
  8107.354  8107.350  0.500  0.417043  130.561  86.0389  24.1038
  8110.304  8110.290  0.500  0.414105  130.525  86.268  24.1422
  8113.317  8113.310  0.500  0.411017  130.414  86.4611  24.1789
  8116.423  8116.410  0.500  0.408269  130.345  86.6531  24.22
  8119.600  8119.580  0.500  0.406338  130.293  86.7863  24.2603
  8122.841  8122.830  0.500  0.405653  130.223  86.799  24.2894
  8126.161  8126.150  0.500  0.405355  130.1  86.7429  24.3195
  8129.569  8129.550  0.500  0.405488  130.013  86.6733  24.3682
  8133.042  8133.030  0.500  0.406073  129.925  86.5638  24.4102
  8136.594  8136.580  0.500  0.405504  129.841  86.5572  24.4743
  8140.218  8140.210  0.500  0.403874  129.728  86.623  24.5469
  8143.925  8143.910  0.500  0.402214  129.621  86.6954  24.6104
  8147.706  8147.690  0.500  0.400244  129.56  86.8253  24.6832
  8151.562  8151.550  0.500  0.397885  129.375  86.9061  24.7421
  8155.484  8155.480  0.500  0.396583  129.321  86.9828  24.8072
  8159.496  8159.490  0.500  0.395116  129.219  87.0423  24.8694
  8163.581  8163.580  0.500  0.392888  129.124  87.1722  24.9578
  8167.749  8167.740  0.500  0.390298  129.043  87.3434  25.0534
  8171.991  8171.980  0.500  0.388660  128.941  87.4176  25.1133
  8176.309  8176.290  0.500  0.386841  128.815  87.491  25.169
  8180.697  8180.680  0.500  0.385552  128.693  87.5206  25.2098
  8185.170  8185.150  0.500  0.384987  128.572  87.4884  25.2201
  8189.706  8189.690  0.500  0.384142  128.472  87.4942  25.2528
  8194.322  8194.310  0.500  0.383208  128.332  87.48  25.2943
  8199.022  8199.000  0.500  0.381347  128.223  87.5686  25.3722
  8203.787  8203.770  0.500  0.378881  128.137  87.726  25.4763
[...]
  8213.563  8213.550  0.500  0.374516  127.867  87.9241  25.6599
  8218.562  8218.550  0.500  0.372537  127.708  87.9888  25.7317
  8223.632  8223.620  0.500  0.370386  127.615  88.114  25.814
  8228.784  8228.770  0.500  0.368451  127.475  88.1879  25.8763
  8234.023  8234.000  0.500  0.366707  127.332  88.2425  25.9368
  8239.331  8239.310  0.500  0.365110  127.212  88.3004  26.0049
  8244.712  8244.690  0.500  0.364095  127.044  88.273  26.0502
  8250.165  8250.150  0.500  0.361980  126.862  88.3339  26.1256
  8255.696  8255.680  0.500  0.359911  126.735  88.4278  26.2145
  8261.313  8261.290  0.500  0.357940  126.623  88.5239  26.3044
  8267.002  8266.970  0.500  0.355536  126.411  88.5887  26.3847
  8272.749  8272.740  0.500  0.353173  126.323  88.736  26.4784
  8278.573  8278.570  0.500  0.350946  124.697  87.7896  26.2451
  8284.507  8284.490  0.500  0.348772  125.938  88.8563  26.6156
  8290.492  8290.480  0.500  0.346971  125.775  88.9014  26.6908
  8296.559  8296.550  0.500  0.345041  125.622  88.9643  26.7731
  8302.703  8302.690  0.500  0.343020  125.429  89.0078  26.8525
  8308.928  8308.910  0.500  0.340838  125.247  89.0726  26.9377
  8315.210  8315.200  0.500  0.338806  125.051  89.1142  27.0201
  8321.587  8321.570  0.500  0.336419  124.88  89.205  27.1114
  8328.032  8328.020  0.500  0.333993  124.691  89.286  27.2013
  8334.549  8334.550  0.500  0.331784  124.391  89.2683  27.2591
  8341.157  8341.150  0.500  0.329528  124.085  89.2496  27.319
  8347.830  8347.820  0.500  0.326931  123.809  89.2828  27.391
  8354.585  8354.570  0.500  0.324708  123.357  89.1546  27.4221
  8361.412  8361.400  0.500  0.322642  123.145  89.186  27.4948
  8368.307  8368.310  0.500  0.320461  123.677  89.7663  27.7555
  8375.299  8375.290  0.500  0.317925  123.485  89.8546  27.8526
  8382.362  8382.350  0.500  0.315443  123.255  89.9102  27.9398
  8389.495  8389.480  0.500  0.312997  122.978  89.9278  28.0128
  8396.702  8396.690  0.500  0.311074  122.725  89.9156  28.0771
  8403.990  8403.980  0.500  0.308512  122.539  90.0097  28.1772
  8411.353  8411.340  0.500  0.305825  122.325  90.0941  28.2756
  8418.786  8418.780  0.500  0.303340  122.114  90.1626  28.3736
  8426.312  8426.290  0.500  0.300624  121.884  90.2377  28.4765
  8433.886  8433.880  0.500  0.298246  121.595  90.2377  28.5581
  8441.568  8441.550  0.500  0.295592  121.424  90.3507  28.6761
  8449.302  8449.290  0.500  0.293469  121.176  90.3575  28.7598
  8457.133  8457.110  0.500  0.290806  120.961  90.4379  28.8655
  8465.025  8465.010  0.500  0.288172  120.73  90.5028  28.9639
  8473.000  8472.980  0.500  0.285735  120.432  90.4999  29.0455
  8481.053  8481.030  0.500  0.282922  120.156  90.5471  29.1392
  8489.167  8489.150  0.500  0.280349  119.891  90.5801  29.2305
  8497.375  8497.350  0.500  0.277709  119.584  90.5868  29.315
  8505.646  8505.630  0.500  0.275054  119.325  90.6309  29.4128
  8514.002  8513.980  0.500  0.272365  118.938  90.5802  29.4811
  8522.449  8522.410  0.500  0.269565  118.607  90.5818  29.5708
  8530.927  8530.910  0.500  0.267090  102.747  78.6632  25.7558
  8539.506  8539.490  0.500  0.264253  118.493  90.9766  29.8751
  8548.169  8548.150  0.500  0.261561  118.143  90.9526  29.9553
  8556.900  8556.890  0.500  0.258903  117.812  90.9385  30.0355
  8565.719  8565.700  0.500  0.256193  117.522  90.9615  30.1284
  8574.595  8574.580  0.500  0.253346  117.22  90.9864  30.2269
  8583.559  8583.540  0.500  0.250555  116.864  90.9634  30.313
  8592.596  8592.580  0.500  0.247648  105.282  82.1867  27.4734
  8597.149  8597.130  0.500  0.246382  115.613  90.3662  30.2567