Folder: webxdiviewer/xdidata/Fe (part 12)

File: Fe-Ludwigite.xdi
# XDI/1.0 BlueSky/1.10.0 BMM/2023-1.0-py310-tiled
# Beamline.name: BMM (06BM) -- Beamline for Materials Measurement (NIST)
# Beamline.xray_source: NSLS-II three-pole wiggler
# Beamline.collimation: paraboloid mirror, 5 nm Rh on 30 nm Pt
# Beamline.focusing: not in use
# Beamline.harmonic_rejection: flat mirror, Si stripe, pitch = 7.0 mrad relative to beam
# Beamline.software: Bluesky 1.10.0, Ophyd 1.7.0, DataBroker 2.0.0b13, Python 3.10.8, 2023-1.0-py310-tiled
# Detector.I0: 10 cm N2
# Detector.I1: 25 cm N2
# Detector.I2: 25 cm N2
# Element.symbol: Fe
# Element.edge: K
# Element.reference: Fe
# Element.reference_material: Fe foil
# Facility.name: NSLS-II
# Facility.energy: 3.0
# Facility.current: 400.3
# Facility.mode: top-off
# Facility.GUP: 123456
# Facility.SAF: 301027
# Facility.cycle: 2023-2
# Mono.name: Si(111)
# Mono.d_spacing: 3.13519
# Mono.encoder_resolution: 0.0000050 deg/ct
# Mono.angle_offset: 16.0754 deg
# Mono.scan_mode: pseudo channel cut
# Mono.scan_type: step
# Mono.direction: forward in energy
# Sample.name: Mg2FeBO5
# Sample.prep: PEG pellet
# Sample.x: 142.329 mm
# Sample.y: 114.126 mm
# Sample.SDD_position: 205.000 mm
# Scan.experimenters: Bruce Ravel
# Scan.edge_energy: 7112.0
# Scan.start_time: 2023-05-05T20:47:37
# Scan.end_time: 2023-05-05T20:55:52
# Scan.transient_id: 74631
# Scan.uid: d33c9957-3997-43d3-a6a7-6366e3fd1f26
# Scan.plot_hint: ln(I0/It)  --  ln($5/$6)
# Column.1: energy eV
# Column.2: requested_energy eV
# Column.3: measurement_time seconds
# Column.4: xmu
# Column.5: I0 nA
# Column.6: It nA
# Column.7: Ir nA
# ///////////
# courtesy Martin Stennett, University of Sheffield
# -----------
# energy  requested_energy  measurement_time  xmu  I0  It  Ir
  6912.001  6912.000  0.500  1.398104  155.087  38.3166  7.186278
  6942.019  6942.000  0.500  1.371440  154.887  39.3012  7.529380
  6972.012  6972.000  0.500  1.345742  154.821  40.3072  7.883921
  7002.013  7002.000  0.500  1.320028  154.709  41.3271  8.249313
  7032.010  7032.000  0.500  1.295232  154.525  42.3143  8.612864
  7062.006  7062.000  0.500  1.271025  153.624  43.0983  8.928249
  7083.981  7084.000  0.500  1.254538  153.803  43.8657  9.168844
  7089.985  7090.000  0.500  1.250662  153.926  44.0714  9.215859
  7096.513  7096.000  0.500  1.247050  153.822  44.2009  9.219947
  7102.006  7102.000  0.500  1.244712  153.748  44.2831  9.159207
  7102.887  7102.900  0.500  1.244418  153.729  44.2906  9.137370
  7103.785  7103.800  0.500  1.244369  153.7  44.2844  9.107487
  7104.686  7104.700  0.500  1.244459  153.668  44.2712  9.068008
  7105.587  7105.600  0.500  1.244507  153.662  44.2675  9.019974
  7106.490  7106.500  0.500  1.244726  153.629  44.2482  8.952827
  7107.385  7107.400  0.500  1.245142  153.598  44.2209  8.860386
  7108.291  7108.300  0.500  1.245733  153.586  44.1914  8.723134
  7109.195  7109.200  0.500  1.246810  153.546  44.1322  8.494930
  7110.095  7110.100  0.500  1.248864  153.487  44.0246  8.011883
  7110.997  7111.000  0.500  1.253341  153.425  43.8105  6.763311
  7111.891  7111.900  0.500  1.263511  153.342  43.3437  4.847464
  7112.790  7112.800  0.500  1.279824  153.253  42.6175  3.724405
  7113.699  7113.700  0.500  1.293664  153.207  42.0191  3.128024
  7114.598  7114.600  0.500  1.292231  153.17  42.0694  2.754484
  7115.498  7115.500  0.500  1.289538  153.13  42.1718  2.577554
  7116.391  7116.400  0.500  1.293631  153.101  41.9915  2.487755
  7117.295  7117.300  0.500  1.309069  153.066  41.3386  2.292630
  7118.203  7118.200  0.500  1.339669  153.038  40.0855  1.879594
  7119.099  7119.100  0.500  1.392071  152.969  38.022  1.418164
  7119.995  7120.000  0.500  1.467717  152.918  35.2402  1.031558
  7120.894  7120.900  0.500  1.561865  152.858  32.0611  0.720955
  7121.797  7121.800  0.500  1.656214  152.791  29.1618  0.522022
  7122.705  7122.700  0.500  1.743154  152.716  26.7204  0.400331
  7123.600  7123.600  0.500  1.823287  152.633  24.6493  0.322202
  7124.495  7124.500  0.500  1.908688  152.529  22.6162  0.265141
  7125.399  7125.400  0.500  1.999023  152.955  20.7204  0.219963
  7126.301  7126.300  0.500  2.073567  152.821  19.2152  0.186069
  7127.203  7127.200  0.500  2.140946  152.717  17.9509  0.156581
  7128.099  7128.100  0.500  2.219914  152.583  16.5733  0.127274
  7128.996  7129.000  0.500  2.308986  152.485  15.1512  0.100388
  7129.899  7129.900  0.500  2.385139  152.365  14.0292  0.080412
  7130.802  7130.800  0.500  2.409272  152.205  13.6803  0.071751
  7131.706  7131.700  0.500  2.394896  152.091  13.868  0.073572
  7132.599  7132.600  0.500  2.366151  152.058  14.2693  0.083549
  7133.498  7133.500  0.500  2.324608  152.024  14.8713  0.099108
  7134.403  7134.400  0.500  2.276173  151.951  15.6018  0.116732
  7135.305  7135.300  0.500  2.236830  151.916  16.2241  0.131568
  7136.203  7136.200  0.500  2.211600  151.922  16.6393  0.140745
  7136.992  7137.000  0.500  2.199410  151.853  16.8357  0.143992
  7140.030  7140.010  0.500  2.154555  151.797  17.6016  0.134899
  7143.190  7143.200  0.500  2.116555  151.778  18.2811  0.136443
  7146.557  7146.560  0.500  2.069446  151.723  19.1559  0.139633
  7150.085  7150.080  0.500  1.991909  151.712  20.6987  0.125799
  7153.784  7153.780  0.500  1.953089  151.707  21.5174  0.123080
  7157.650  7157.650  0.500  1.945884  151.624  21.6611  0.129266
  7161.707  7161.700  0.500  1.965184  151.557  21.2376  0.128954
  7165.915  7165.910  0.500  1.993873  151.417  20.618  0.132048
  7170.294  7170.290  0.500  2.023155  151.337  20.0124  0.133725
  7174.851  7174.850  0.500  2.053866  151.244  19.3952  0.146633
  7179.592  7179.580  0.500  2.069997  151.162  19.0746  0.166617
  7184.496  7184.480  0.500  2.074410  151.049  18.9764  0.162239
  7189.557  7189.550  0.500  2.063941  150.945  19.1629  0.141601
  7194.801  7194.790  0.500  2.046042  150.783  19.488  0.125620
  7200.226  7200.210  0.500  2.019737  150.652  19.99  0.147548
  7205.795  7205.790  0.500  1.994510  150.523  20.4832  0.189454
  7211.562  7211.550  0.500  1.982881  150.383  20.7035  0.172744
  7217.463  7217.480  0.500  1.976172  150.177  20.8143  0.105637
  7223.584  7223.580  0.500  1.971219  149.996  20.8925  0.100293
  7229.864  7229.850  0.500  1.966096  150.034  21.0052  0.152416
  7236.299  7236.290  0.500  1.959857  149.915  21.1199  0.214395
  7242.910  7242.900  0.500  1.957805  149.786  21.145  0.213067
  7249.699  7249.690  0.500  1.961682  149.511  21.0244  0.188481
  7256.659  7256.650  0.500  1.965743  149.513  20.9396  0.199466
  7263.778  7263.770  0.500  1.963094  138.615  19.4648  0.173918
  7271.076  7271.070  0.500  1.952497  149.645  21.2375  0.171900
  7278.559  7278.550  0.500  1.941943  149.618  21.4589  0.156627
  7286.202  7286.190  0.500  1.928559  149.195  21.6867  0.142797
  7294.014  7294.000  0.500  1.910572  149.227  22.0849  0.161245
  7302.003  7301.990  0.500  1.899002  147.299  22.0534  0.209988
  7310.161  7310.150  0.500  1.890383  149.623  22.5952  0.238033
  7318.477  7318.470  0.500  1.885009  149.418  22.6858  0.239733
  7326.983  7326.970  0.500  1.881143  149.227  22.7446  0.242658
  7335.663  7335.650  0.500  1.873751  149.079  22.8906  0.255835
  7344.500  7344.490  0.500  1.864792  148.862  23.063  0.249545
  7353.512  7353.500  0.500  1.853040  148.671  23.3056  0.214787
  7362.703  7362.690  0.500  1.842915  148.466  23.5104  0.194808
  7372.065  7372.050  0.500  1.835187  148.245  23.6575  0.204689
  7381.584  7381.570  0.500  1.827257  148.024  23.8102  0.270435
  7391.279  7391.270  0.500  1.817675  147.799  24.003  0.299932
  7401.157  7401.150  0.500  1.806613  147.549  24.2289  0.293383
  7411.198  7411.190  0.500  1.795355  147.287  24.4598  0.296269
  7421.401  7421.400  0.500  1.783384  146.996  24.7054  0.303938
  7431.805  7431.790  0.500  1.772984  146.701  24.9136  0.318025
  7442.359  7442.350  0.500  1.764135  146.336  25.0725  0.304917
  7453.088  7453.080  0.500  1.755796  144.957  25.0442  0.286973
  7463.992  7463.980  0.500  1.745822  145.833  25.448  0.298612
  7475.063  7475.050  0.500  1.735077  145.628  25.6869  0.330317
  7486.298  7486.290  0.500  1.725642  145.182  25.851  0.357263
  7497.724  7497.710  0.500  1.714884  144.892  26.0783  0.380298
  7509.304  7509.290  0.500  1.704347  144.522  26.2873  0.379224
  7521.069  7521.050  0.500  1.693599  144.136  26.5003  0.389726
  7532.994  7532.980  0.500  1.682584  143.746  26.7213  0.393194
  7545.093  7545.080  0.500  1.671857  143.305  26.9268  0.403759
  7557.368  7557.350  0.500  1.660559  142.889  27.1535  0.405976
  7569.811  7569.790  0.500  1.650561  142.46  27.344  0.408176
  7582.432  7582.410  0.500  1.639854  142.026  27.5542  0.437823
  7595.209  7595.190  0.500  1.628659  141.452  27.7519  0.457016
  7608.145  7608.150  0.500  1.618327  140.468  27.8451  0.467033
  7621.302  7621.280  0.500  1.607833  140.357  28.1164  0.483117
  7634.573  7634.580  0.500  1.596527  140.217  28.4078  0.494823
  7648.042  7648.050  0.500  1.585066  139.713  28.6319  0.518355
  7661.683  7661.700  0.500  1.574540  139.279  28.845  0.530664
  7675.496  7675.510  0.500  1.563152  138.792  29.0733  0.535072
  7689.523  7689.500  0.500  1.551975  138.472  29.3325  0.546103
  7703.637  7703.660  0.500  1.540754  137.778  29.5148  0.566489
  7717.998  7717.990  0.500  1.529435  137.239  29.734  0.589292
  7732.478  7732.490  0.500  1.518349  136.723  29.9524  0.607825
  7747.175  7747.160  0.500  1.506807  136.245  30.1941  0.625343
  7762.016  7762.000  0.500  1.495630  135.624  30.3944  0.642512
  7777.036  7777.020  0.500  1.484553  135.012  30.5942  0.665719
  7792.224  7792.200  0.500  1.473256  134.43  30.8085  0.684624
  7807.538  7807.560  0.500  1.461646  133.812  31.0248  0.700431
  7823.086  7823.090  0.500  1.450266  133.188  31.2336  0.717358
  7838.770  7838.790  0.500  1.438468  132.241  31.3797  0.733655
  7854.677  7854.660  0.500  1.426869  130.984  31.4438  0.751525
  7870.677  7870.710  0.500  1.415611  131.677  31.9682  0.784142
  7886.894  7886.920  0.500  1.404259  131.019  32.1716  0.808793
  7903.284  7903.310  0.500  1.392842  130.281  32.3576  0.832714
  7919.846  7919.870  0.500  1.381319  129.537  32.5457  0.856035
  7936.583  7936.600  0.500  1.369813  128.552  32.672  0.877333
  7953.474  7953.500  0.500  1.358353  127.875  32.8747  0.898480
  7964.829  7964.860  0.500  1.350642  127.281  32.9751  0.912792

File: Fe-Magnetite.xdi
# XDI/1.0 BlueSky/1.10.0 BMM/2023-1.0-py310-tiled
# Beamline.name: BMM (06BM) -- Beamline for Materials Measurement (NIST)
# Beamline.xray_source: NSLS-II three-pole wiggler
# Beamline.collimation: paraboloid mirror, 5 nm Rh on 30 nm Pt
# Beamline.focusing: not in use
# Beamline.harmonic_rejection: flat mirror, Si stripe, pitch = 7.0 mrad relative to beam
# Beamline.software: Bluesky 1.10.0, Ophyd 1.7.0, DataBroker 2.0.0b13, Python 3.10.8, 2023-1.0-py310-tiled
# Detector.I0: 10 cm N2
# Detector.I1: 25 cm N2
# Detector.I2: 25 cm N2
# Element.symbol: Fe
# Element.edge: K
# Element.reference: Fe
# Element.reference_material: Fe foil
# Facility.name: NSLS-II
# Facility.energy: 3.0
# Facility.current: 400.0
# Facility.mode: top-off
# Facility.GUP: 123456
# Facility.SAF: 301027
# Facility.cycle: 2023-2
# Mono.name: Si(111)
# Mono.d_spacing: 3.13519
# Mono.encoder_resolution: 0.0000050 deg/ct
# Mono.angle_offset: 16.0754 deg
# Mono.scan_mode: pseudo channel cut
# Mono.scan_type: step
# Mono.direction: forward in energy
# Sample.name: Fe3O4
# Sample.prep: powder on tape
# Sample.x: 116.329 mm
# Sample.y: 114.126 mm
# Sample.SDD_position: 205.000 mm
# Scan.experimenters: Bruce Ravel
# Scan.edge_energy: 7112.0
# Scan.start_time: 2023-05-05T17:30:42
# Scan.end_time: 2023-05-05T17:38:36
# Scan.transient_id: 74521
# Scan.uid: 27664e0f-6faa-46b6-91c9-850807772a93
# Scan.plot_hint: ln(I0/It)  --  ln($5/$6)
# Column.1: energy eV
# Column.2: requested_energy eV
# Column.3: measurement_time seconds
# Column.4: xmu
# Column.5: I0 nA
# Column.6: It nA
# Column.7: Ir nA
# ///////////
# Welcome to BMM
# -----------
# energy  requested_energy  measurement_time  xmu  I0  It  Ir
  6912.007  6912.000  0.500  2.208323  153.451  16.8619  3.165042
  6942.013  6942.000  0.500  2.173438  153.272  17.4401  3.343732
  6972.012  6972.000  0.500  2.137825  153.262  18.0712  3.536995
  7002.009  7002.000  0.500  2.103791  153.121  18.6797  3.731888
  7032.016  7032.000  0.500  2.069732  152.954  19.3058  3.931790
  7062.014  7062.000  0.500  2.037937  152.041  19.8105  4.106692
  7083.991  7084.000  0.500  2.017082  152.276  20.2593  4.238010
  7089.994  7090.000  0.500  2.012740  152.386  20.3622  4.260902
  7096.191  7096.000  0.500  2.009227  152.317  20.4246  4.263721
  7101.999  7102.000  0.500  2.008474  152.252  20.4312  4.228573
  7102.889  7102.900  0.500  2.008914  152.247  20.4216  4.215927
  7103.787  7103.800  0.500  2.008928  152.207  20.4158  4.200818
  7104.688  7104.700  0.500  2.009766  152.688  20.4632  4.193410
  7105.587  7105.600  0.500  2.010622  152.684  20.4453  4.167295
  7106.492  7106.500  0.500  2.011913  152.647  20.4139  4.131697
  7107.387  7107.400  0.500  2.013591  152.609  20.3746  4.083859
  7108.287  7108.300  0.500  2.016159  152.569  20.317  4.010451
  7109.193  7109.200  0.500  2.019773  152.551  20.2413  3.894010
  7110.093  7110.100  0.500  2.025646  152.487  20.1143  3.654902
  7110.997  7111.000  0.500  2.038343  152.43  19.8531  3.044695
  7111.889  7111.900  0.500  2.066136  152.332  19.2966  2.145587
  7112.788  7112.800  0.500  2.126792  152.239  18.1498  1.580455
  7113.697  7113.700  0.500  2.183560  152.185  17.1421  1.270859
  7114.596  7114.600  0.500  2.163824  152.137  17.4783  1.140979
  7115.498  7115.500  0.500  2.143897  152.143  17.8308  1.088482
  7116.391  7116.400  0.500  2.145321  152.089  17.799  1.053606
  7117.297  7117.300  0.500  2.171112  152.062  17.3427  0.958685
  7118.201  7118.200  0.500  2.222537  152.009  16.4677  0.767818
  7119.099  7119.100  0.500  2.304998  151.954  15.1587  0.561267
  7119.998  7120.000  0.500  2.418269  151.918  13.5322  0.393093
  7120.894  7120.900  0.500  2.546279  151.823  11.8988  0.265435
  7121.795  7121.800  0.500  2.655184  151.827  10.6713  0.189388
  7122.702  7122.700  0.500  2.758690  151.785  9.619332  0.143465
  7123.600  7123.600  0.500  2.867532  151.737  8.624582  0.112019
  7124.497  7124.500  0.500  2.967755  151.69  7.799668  0.091040
  7125.401  7125.400  0.500  3.050700  151.625  7.175766  0.075928
  7126.297  7126.300  0.500  3.110427  151.562  6.756933  0.065105
  7127.199  7127.200  0.500  3.168051  151.496  6.375797  0.055391
  7128.102  7128.100  0.500  3.236036  151.431  5.954177  0.045463
  7128.994  7129.000  0.500  3.305801  151.359  5.550309  0.036659
  7129.899  7129.900  0.500  3.352955  151.273  5.291666  0.030255
  7130.800  7130.800  0.500  3.360735  151.193  5.247869  0.027614
  7131.701  7131.700  0.500  3.347698  151.116  5.314042  0.028283
  7132.601  7132.600  0.500  3.330218  151.086  5.406649  0.031973
  7133.496  7133.500  0.500  3.305640  151.086  5.541183  0.037251
  7134.400  7134.400  0.500  3.277248  151.054  5.699551  0.042996
  7135.305  7135.300  0.500  3.252709  151.037  5.840514  0.047641
  7136.201  7136.200  0.500  3.234279  150.95  5.945706  0.050341
  7136.998  7137.000  0.500  3.223261  150.996  6.013416  0.051536
  7140.023  7140.010  0.500  3.176244  151.015  6.303673  0.048275
  7143.220  7143.200  0.500  3.150818  150.928  6.462300  0.048387
  7146.578  7146.560  0.500  3.143389  150.985  6.512926  0.047280
  7150.093  7150.080  0.500  3.078902  150.969  6.946049  0.042193
  7153.792  7153.780  0.500  3.035157  150.946  7.255553  0.041522
  7157.656  7157.650  0.500  3.001020  150.885  7.504469  0.044855
  7161.716  7161.700  0.500  2.992543  150.805  7.564345  0.045903
  7165.924  7165.910  0.500  3.006722  150.697  7.452495  0.047769
  7170.299  7170.290  0.500  3.036728  150.598  7.227446  0.048315
  7174.864  7174.850  0.500  3.076551  150.47  6.939398  0.052803
  7179.589  7179.580  0.500  3.104128  150.397  6.747362  0.058975
  7184.496  7184.480  0.500  3.111073  150.915  6.723758  0.057535
  7189.561  7189.550  0.500  3.096439  150.871  6.820874  0.050311
  7194.798  7194.790  0.500  3.073750  150.67  6.968096  0.044984
  7200.226  7200.210  0.500  3.044420  150.556  7.170092  0.052979
  7205.806  7205.790  0.500  3.017123  150.435  7.362562  0.068167
  7211.557  7211.550  0.500  3.007321  150.268  7.426820  0.061735
  7217.489  7217.480  0.500  3.012141  150.119  7.383819  0.037275
  7223.586  7223.580  0.500  3.021900  149.932  7.302983  0.035176
  7229.867  7229.850  0.500  3.017813  150.003  7.336376  0.053540
  7236.308  7236.290  0.500  3.000068  149.863  7.460755  0.075870
  7242.912  7242.900  0.500  2.971813  149.749  7.668682  0.077131
  7249.703  7249.690  0.500  2.956494  149.497  7.773963  0.069705
  7256.664  7256.650  0.500  2.965545  149.465  7.702286  0.073304
  7263.791  7263.770  0.500  2.980216  136.321  6.922626  0.061737
  7271.081  7271.070  0.500  2.979144  149.617  7.605972  0.061387
  7278.566  7278.550  0.500  2.970128  149.614  7.674701  0.055851
  7286.200  7286.190  0.500  2.954384  149.171  7.773421  0.051279
  7294.009  7294.000  0.500  2.930647  149.199  7.961627  0.058132
  7302.003  7301.990  0.500  2.914353  147.519  8.001282  0.076217
  7310.168  7310.150  0.500  2.898053  149.003  8.214580  0.086369
  7318.488  7318.470  0.500  2.894042  148.825  8.237747  0.086847
  7326.981  7326.970  0.500  2.895359  148.661  8.217847  0.087499
  7335.658  7335.650  0.500  2.888636  148.463  8.262289  0.092139
  7344.502  7344.490  0.500  2.874788  148.212  8.363314  0.090106
  7353.510  7353.500  0.500  2.858386  148.007  8.489898  0.077990
  7362.703  7362.690  0.500  2.846524  147.839  8.581425  0.071016
  7372.060  7372.050  0.500  2.838373  147.631  8.639500  0.074767
  7381.581  7381.570  0.500  2.826585  147.385  8.727375  0.098999
  7391.279  7391.270  0.500  2.816374  147.151  8.802906  0.109733
  7401.160  7401.150  0.500  2.807942  146.913  8.863116  0.107114
  7411.198  7411.190  0.500  2.796114  146.669  8.953669  0.108359
  7421.408  7421.400  0.500  2.782131  146.373  9.061447  0.111223
  7431.802  7431.790  0.500  2.768769  146.102  9.166294  0.116619
  7442.354  7442.350  0.500  2.755857  145.734  9.262060  0.112487
  7453.093  7453.080  0.500  2.747205  144.358  9.254329  0.105923
  7463.992  7463.980  0.500  2.734934  145.213  9.424073  0.110449
  7475.055  7475.050  0.500  2.721224  144.985  9.539186  0.122382
  7486.310  7486.290  0.500  2.710063  144.617  9.621751  0.132692
  7497.729  7497.710  0.500  2.697259  144.263  9.721892  0.141542
  7509.309  7509.290  0.500  2.686186  143.878  9.803886  0.141215
  7521.081  7521.050  0.500  2.673523  143.505  9.903108  0.145176
  7532.980  7532.980  0.500  2.661296  143.149  10  0.146734
  7545.076  7545.080  0.500  2.647990  142.752  10.1059  0.151122
  7557.343  7557.350  0.500  2.634062  142.346  10.2185  0.152351
  7569.779  7569.790  0.500  2.621759  141.994  10.3194  0.153444
  7582.417  7582.410  0.500  2.609251  141.556  10.4171  0.165284
  7595.185  7595.190  0.500  2.597252  141.001  10.5015  0.172637
  7608.147  7608.150  0.500  2.585353  140.242  10.57  0.177005
  7621.299  7621.280  0.500  2.572011  140.083  10.6998  0.183613
  7634.576  7634.580  0.500  2.557932  139.934  10.84  0.188431
  7648.060  7648.050  0.500  2.544151  139.453  10.9526  0.198007
  7661.723  7661.700  0.500  2.530602  139.021  11.0676  0.203146
  7675.496  7675.510  0.500  2.517877  138.472  11.1651  0.204826
  7689.518  7689.500  0.500  2.506007  138.147  11.2719  0.209206
  7703.655  7703.660  0.500  2.493128  137.399  11.3562  0.217329
  7717.977  7717.990  0.500  2.479182  136.869  11.4712  0.226880
  7732.511  7732.490  0.500  2.465659  136.302  11.5792  0.234276
  7747.145  7747.160  0.500  2.451831  135.815  11.6985  0.241716
  7761.987  7762.000  0.500  2.438081  135.188  11.8058  0.249039
  7777.031  7777.020  0.500  2.424518  134.644  11.9188  0.258484
  7792.226  7792.200  0.500  2.411230  134.044  12.0244  0.266648
  7807.543  7807.560  0.500  2.397508  133.416  12.1335  0.273210
  7823.086  7823.090  0.500  2.383507  132.758  12.2439  0.280410
  7838.812  7838.790  0.500  2.368934  131.877  12.3411  0.288050
  7854.648  7854.660  0.500  2.354805  130.549  12.3907  0.295625
  7870.706  7870.710  0.500  2.340951  130.771  12.5849  0.307952
  7886.894  7886.920  0.500  2.327361  130.127  12.6943  0.318590
  7903.295  7903.310  0.500  2.313536  129.36  12.7951  0.328685
  7919.852  7919.870  0.500  2.299680  128.63  12.9004  0.338412
  7936.578  7936.600  0.500  2.285829  127.703  12.9861  0.347902
  7953.477  7953.500  0.500  2.271994  127.051  13.0998  0.357159
  7964.846  7964.860  0.500  2.262818  126.417  13.1545  0.363419