Folder: webxdiviewer/xdidata/Fe (part 6)

File: Fe-ferro-Axinite.xdi
# XDI/1.0 BlueSky/1.10.0 BMM/2023-1.0-py310-tiled
# Beamline.name: BMM (06BM) -- Beamline for Materials Measurement (NIST)
# Beamline.xray_source: NSLS-II three-pole wiggler
# Beamline.collimation: paraboloid mirror, 5 nm Rh on 30 nm Pt
# Beamline.focusing: not in use
# Beamline.harmonic_rejection: flat mirror, Si stripe, pitch = 7.0 mrad relative to beam
# Beamline.software: Bluesky 1.10.0, Ophyd 1.7.0, DataBroker 2.0.0b13, Python 3.10.8, 2023-1.0-py310-tiled
# Detector.I0: 10 cm N2
# Detector.I1: 25 cm N2
# Detector.I2: 25 cm N2
# Element.symbol: Fe
# Element.edge: K
# Element.reference: Fe
# Element.reference_material: Fe foil
# Facility.name: NSLS-II
# Facility.energy: 3.0
# Facility.current: 400.1
# Facility.mode: top-off
# Facility.GUP: 123456
# Facility.SAF: 301027
# Facility.cycle: 2023-2
# Mono.name: Si(111)
# Mono.d_spacing: 3.13519
# Mono.encoder_resolution: 0.0000050 deg/ct
# Mono.angle_offset: 16.0754 deg
# Mono.scan_mode: pseudo channel cut
# Mono.scan_type: step
# Mono.direction: forward in energy
# Sample.name: Ca2FeAl2BSi4O15OH
# Sample.prep: PEG pellet
# Sample.x: 142.329 mm
# Sample.y: 114.126 mm
# Sample.SDD_position: 205.000 mm
# Scan.experimenters: Bruce Ravel
# Scan.edge_energy: 7112.0
# Scan.start_time: 2023-05-05T20:01:53
# Scan.end_time: 2023-05-05T20:10:03
# Scan.transient_id: 74606
# Scan.uid: 7e2abe51-0ab5-4919-80b5-979d99742378
# Scan.plot_hint: ln(I0/It)  --  ln($5/$6)
# Column.1: energy eV
# Column.2: requested_energy eV
# Column.3: measurement_time seconds
# Column.4: xmu
# Column.5: I0 nA
# Column.6: It nA
# Column.7: Ir nA
# ///////////
# courtesy Martin Stennett, University of Sheffield
# -----------
# energy  requested_energy  measurement_time  xmu  I0  It  Ir
  6912.005  6912.000  0.500  1.608787  154.363  30.8926  5.799903
  6942.033  6942.000  0.500  1.582492  154.181  31.6784  6.074116
  6972.003  6972.000  0.500  1.556612  154.118  32.4958  6.361653
  7002.013  7002.000  0.500  1.531281  153.989  33.3015  6.653356
  7032.008  7032.000  0.500  1.506337  153.82  34.1052  6.945773
  7062.006  7062.000  0.500  1.482182  152.895  34.7288  7.199916
  7083.989  7084.000  0.500  1.464699  153.084  35.385  7.400994
  7089.992  7090.000  0.500  1.459690  153.202  35.5902  7.448038
  7095.988  7096.000  0.500  1.455381  153.153  35.7324  7.461889
  7102.003  7102.000  0.500  1.450707  153.059  35.8777  7.426945
  7102.887  7102.900  0.500  1.450049  153.041  35.897  7.412012
  7103.785  7103.800  0.500  1.449590  153.042  35.9138  7.391743
  7104.690  7104.700  0.500  1.448924  152.994  35.9264  7.365260
  7105.584  7105.600  0.500  1.448313  152.977  35.9444  7.329768
  7106.488  7106.500  0.500  1.447474  152.991  35.9778  7.285254
  7107.385  7107.400  0.500  1.446922  152.929  35.9832  7.217305
  7108.289  7108.300  0.500  1.446314  152.894  35.9967  7.112546
  7109.188  7109.200  0.500  1.445998  152.897  36.009  6.939413
  7110.095  7110.100  0.500  1.445957  152.828  35.9941  6.560746
  7110.995  7111.000  0.500  1.446481  152.768  35.9612  5.565708
  7111.891  7111.900  0.500  1.448150  152.686  35.882  4.028344
  7112.792  7112.800  0.500  1.447848  152.619  35.877  3.139006
  7113.701  7113.700  0.500  1.446823  152.565  35.9011  2.676142
  7114.598  7114.600  0.500  1.445709  152.536  35.9343  2.356100
  7115.500  7115.500  0.500  1.445353  152.503  35.9392  2.198639
  7116.397  7116.400  0.500  1.445850  152.477  35.9153  2.128388
  7117.295  7117.300  0.500  1.448656  152.457  35.81  1.987230
  7118.199  7118.200  0.500  1.456536  152.94  35.6414  1.675550
  7119.099  7119.100  0.500  1.475506  152.884  34.959  1.304722
  7120.000  7120.000  0.500  1.503863  152.856  33.9753  0.994204
  7120.894  7120.900  0.500  1.528247  152.82  33.1492  0.745309
  7121.801  7121.800  0.500  1.540759  152.763  32.7246  0.584962
  7122.702  7122.700  0.500  1.550805  152.685  32.3811  0.485336
  7123.600  7123.600  0.500  1.563586  152.667  31.966  0.417791
  7124.497  7124.500  0.500  1.578707  152.596  31.4717  0.368375
  7125.394  7125.400  0.500  1.589744  152.527  31.1122  0.330464
  7126.303  7126.300  0.500  1.593751  152.46  30.9741  0.299928
  7127.205  7127.200  0.500  1.589484  152.393  31.093  0.270883
  7128.097  7128.100  0.500  1.580141  152.303  31.3662  0.240598
  7128.996  7129.000  0.500  1.576758  152.247  31.461  0.208106
  7129.901  7129.900  0.500  1.578040  152.154  31.4014  0.179456
  7130.804  7130.800  0.500  1.575852  152.03  31.4445  0.164669
  7131.706  7131.700  0.500  1.567864  151.968  31.6839  0.167625
  7132.601  7132.600  0.500  1.558483  151.961  31.9811  0.186753
  7133.501  7133.500  0.500  1.549042  151.953  32.2827  0.214705
  7134.400  7134.400  0.500  1.542331  151.924  32.4937  0.242513
  7135.303  7135.300  0.500  1.539293  151.914  32.5906  0.263622
  7136.205  7136.200  0.500  1.536972  151.892  32.6614  0.276320
  7136.996  7137.000  0.500  1.535828  151.865  32.6931  0.279462
  7140.026  7140.010  0.500  1.534025  151.856  32.7501  0.250721
  7143.186  7143.200  0.500  1.532781  151.809  32.7807  0.244430
  7146.561  7146.560  0.500  1.522124  151.785  33.1267  0.241387
  7150.089  7150.080  0.500  1.513752  151.738  33.395  0.202974
  7153.784  7153.780  0.500  1.514118  151.724  33.3797  0.190755
  7157.652  7157.650  0.500  1.513490  151.683  33.3915  0.199230
  7161.698  7161.700  0.500  1.510937  151.587  33.4557  0.202791
  7165.915  7165.910  0.500  1.509120  151.446  33.4854  0.214199
  7170.294  7170.290  0.500  1.508258  151.352  33.4936  0.223579
  7174.849  7174.850  0.500  1.509030  151.28  33.4516  0.252792
  7179.587  7179.580  0.500  1.508627  151.186  33.4444  0.291880
  7184.485  7184.480  0.500  1.507393  151.098  33.4661  0.285991
  7189.566  7189.550  0.500  1.502068  151.025  33.6286  0.248532
  7194.803  7194.790  0.500  1.492284  150.825  33.9142  0.218311
  7200.217  7200.210  0.500  1.485219  150.732  34.1336  0.251744
  7205.806  7205.790  0.500  1.480185  150.616  34.2795  0.316872
  7211.564  7211.550  0.500  1.474507  150.425  34.431  0.287221
  7217.485  7217.480  0.500  1.470783  150.286  34.5274  0.174718
  7223.593  7223.580  0.500  1.468455  150.098  34.5648  0.165678
  7229.856  7229.850  0.500  1.464302  150.149  34.7204  0.251632
  7236.308  7236.290  0.500  1.458830  149.989  34.8736  0.354070
  7242.912  7242.900  0.500  1.453793  149.895  35.0278  0.353204
  7249.703  7249.690  0.500  1.449043  149.647  35.1364  0.314552
  7256.664  7256.650  0.500  1.444654  150.068  35.3902  0.336990
  7263.784  7263.770  0.500  1.438598  138.917  32.9596  0.294057
  7271.079  7271.070  0.500  1.434177  150.207  35.7961  0.289809
  7278.564  7278.550  0.500  1.427896  150.204  36.0209  0.262391
  7286.202  7286.190  0.500  1.421066  149.77  36.1629  0.237713
  7294.012  7294.000  0.500  1.414708  149.781  36.3963  0.265447
  7302.006  7301.990  0.500  1.408526  147.9  36.1621  0.343813
  7310.163  7310.150  0.500  1.401624  149.631  36.8386  0.388166
  7318.483  7318.470  0.500  1.395939  149.432  36.9993  0.390880
  7326.983  7326.970  0.500  1.389950  149.275  37.1826  0.396605
  7335.665  7335.650  0.500  1.383503  149.074  37.3726  0.417842
  7344.497  7344.490  0.500  1.377615  148.856  37.5384  0.406077
  7353.517  7353.500  0.500  1.371061  148.655  37.7342  0.347909
  7362.703  7362.690  0.500  1.364108  148.409  37.9345  0.314102
  7372.069  7372.050  0.500  1.357176  148.215  38.1486  0.329852
  7381.584  7381.570  0.500  1.350132  147.992  38.3605  0.435917
  7391.284  7391.270  0.500  1.343015  147.796  38.5832  0.481998
  7401.160  7401.150  0.500  1.335727  147.51  38.7903  0.469288
  7411.203  7411.190  0.500  1.328390  147.294  39.0187  0.472771
  7421.404  7421.400  0.500  1.321355  146.884  39.1847  0.481527
  7431.807  7431.790  0.500  1.313791  146.703  39.4336  0.503344
  7442.354  7442.350  0.500  1.306202  146.323  39.631  0.481992
  7453.091  7453.080  0.500  1.298780  144.931  39.5466  0.453185
  7463.992  7463.980  0.500  1.291133  145.839  40.0997  0.470608
  7475.063  7475.050  0.500  1.283518  145.599  40.3399  0.518430
  7486.303  7486.290  0.500  1.275777  145.175  40.5349  0.560217
  7497.731  7497.710  0.500  1.267999  144.876  40.7671  0.594403
  7509.309  7509.290  0.500  1.259937  144.449  40.9761  0.591093
  7521.047  7521.050  0.500  1.252129  144.064  41.1871  0.605385
  7532.999  7532.980  0.500  1.244129  143.685  41.4089  0.609282
  7545.115  7545.080  0.500  1.236206  143.22  41.6032  0.623529
  7557.387  7557.350  0.500  1.228061  142.765  41.81  0.624837
  7569.809  7569.790  0.500  1.219860  142.387  42.0429  0.626927
  7582.400  7582.410  0.500  1.211654  141.871  42.2357  0.670873
  7595.177  7595.190  0.500  1.203693  141.27  42.393  0.697938
  7608.137  7608.150  0.500  1.195222  140.256  42.4465  0.711447
  7621.297  7621.280  0.500  1.186856  140.064  42.7446  0.734703
  7634.566  7634.580  0.500  1.178128  139.787  43.034  0.749956
  7648.030  7648.050  0.500  1.169608  139.253  43.2365  0.782494
  7661.676  7661.700  0.500  1.161172  138.765  43.4501  0.799232
  7675.508  7675.510  0.500  1.152649  138.129  43.6211  0.802762
  7689.483  7689.500  0.500  1.144286  137.814  43.887  0.817108
  7703.662  7703.660  0.500  1.135659  137.067  44.0273  0.845130
  7717.967  7717.990  0.500  1.126981  136.478  44.2203  0.876505
  7732.465  7732.490  0.500  1.117824  135.892  44.4355  0.901820
  7747.191  7747.160  0.500  1.109122  135.383  44.6558  0.924536
  7761.985  7762.000  0.500  1.100089  134.776  44.8591  0.948749
  7777.003  7777.020  0.500  1.090986  134.569  45.1996  0.983012
  7792.203  7792.200  0.500  1.082171  133.94  45.3869  1.009018
  7807.556  7807.560  0.500  1.073379  133.327  45.5781  1.028918
  7823.076  7823.090  0.500  1.064216  132.704  45.7828  1.051339
  7838.778  7838.790  0.500  1.055368  131.69  45.8367  1.071711
  7854.643  7854.660  0.500  1.046256  130.486  45.8334  1.095447
  7870.685  7870.710  0.500  1.037060  130.682  46.3262  1.135977
  7886.902  7886.920  0.500  1.027876  129.977  46.5012  1.169184
  7903.273  7903.310  0.500  1.018602  129.25  46.6721  1.201024
  7919.846  7919.870  0.500  1.009623  128.461  46.8057  1.231256
  7936.588  7936.600  0.500  1.000377  127.506  46.8893  1.258954
  7953.474  7953.500  0.500  0.991285  126.841  47.0706  1.285822
  7964.837  7964.860  0.500  0.984912  126.275  47.1602  1.305506

File: Fe-Goethite.xdi
# XDI/1.0 BlueSky/1.10.0 BMM/2023-1.0-py310-tiled
# Beamline.name: BMM (06BM) -- Beamline for Materials Measurement (NIST)
# Beamline.xray_source: NSLS-II three-pole wiggler
# Beamline.collimation: paraboloid mirror, 5 nm Rh on 30 nm Pt
# Beamline.focusing: not in use
# Beamline.harmonic_rejection: flat mirror, Si stripe, pitch = 7.0 mrad relative to beam
# Beamline.software: Bluesky 1.10.0, Ophyd 1.7.0, DataBroker 2.0.0b13, Python 3.10.8, 2023-1.0-py310-tiled
# Detector.I0: 10 cm N2
# Detector.I1: 25 cm N2
# Detector.I2: 25 cm N2
# Element.symbol: Fe
# Element.edge: K
# Element.reference: Fe
# Element.reference_material: Fe foil
# Facility.name: NSLS-II
# Facility.energy: 3.0
# Facility.current: 399.8
# Facility.mode: top-off
# Facility.GUP: 123456
# Facility.SAF: 301027
# Facility.cycle: 2023-2
# Mono.name: Si(111)
# Mono.d_spacing: 3.13519
# Mono.encoder_resolution: 0.0000050 deg/ct
# Mono.angle_offset: 16.0754 deg
# Mono.scan_mode: pseudo channel cut
# Mono.scan_type: step
# Mono.direction: forward in energy
# Sample.name: alpha-FeOOH
# Sample.prep: powder on tape
# Sample.x: 116.329 mm
# Sample.y: 114.126 mm
# Sample.SDD_position: 205.000 mm
# Scan.experimenters: Bruce Ravel
# Scan.edge_energy: 7112.0
# Scan.start_time: 2023-05-05T16:55:27
# Scan.end_time: 2023-05-05T17:03:29
# Scan.transient_id: 74501
# Scan.uid: d1d36b6e-e2c4-453a-b150-3f4e26ce3441
# Scan.plot_hint: ln(I0/It)  --  ln($5/$6)
# Column.1: energy eV
# Column.2: requested_energy eV
# Column.3: measurement_time seconds
# Column.4: xmu
# Column.5: I0 nA
# Column.6: It nA
# Column.7: Ir nA
# ///////////
# Welcome to BMM
# -----------
# energy  requested_energy  measurement_time  xmu  I0  It  Ir
  6911.997  6912.000  0.500  1.578682  153.815  31.7239  5.955437
  6942.007  6942.000  0.500  1.550088  153.681  32.6157  6.253968
  6972.008  6972.000  0.500  1.521845  153.715  33.5573  6.570793
  7002.017  7002.000  0.500  1.494125  153.647  34.4853  6.889594
  7032.018  7032.000  0.500  1.466894  153.531  35.4105  7.212765
  7062.008  7062.000  0.500  1.440091  152.594  36.1505  7.495295
  7083.976  7084.000  0.500  1.421070  153.098  36.9664  7.733483
  7089.983  7090.000  0.500  1.415979  153.225  37.1859  7.781556
  7096.016  7096.000  0.500  1.410758  153.14  37.3597  7.800620
  7101.997  7102.000  0.500  1.406013  153.099  37.5274  7.766511
  7102.884  7102.900  0.500  1.405223  153.085  37.5536  7.753295
  7103.785  7103.800  0.500  1.404402  153.578  37.7055  7.758720
  7104.681  7104.700  0.500  1.403716  153.557  37.7263  7.731778
  7105.589  7105.600  0.500  1.403489  153.531  37.7283  7.690815
  7106.492  7106.500  0.500  1.402400  153.52  37.7668  7.644518
  7107.387  7107.400  0.500  1.402028  153.48  37.771  7.569462
  7108.289  7108.300  0.500  1.401235  153.464  37.797  7.459411
  7109.184  7109.200  0.500  1.400559  153.449  37.819  7.272622
  7110.095  7110.100  0.500  1.400058  153.401  37.826  6.850138
  7110.995  7111.000  0.500  1.399703  153.321  37.8196  5.743167
  7111.889  7111.900  0.500  1.399660  153.235  37.8002  4.156213
  7112.790  7112.800  0.500  1.401441  153.146  37.7109  3.262322
  7113.691  7113.700  0.500  1.402498  153.085  37.6562  2.782691
  7114.596  7114.600  0.500  1.403437  153.037  37.6091  2.449486
  7115.504  7115.500  0.500  1.401234  152.984  37.6788  2.298388
  7116.391  7116.400  0.500  1.400682  152.914  37.6825  2.229359
  7117.295  7117.300  0.500  1.400397  152.826  37.6716  2.075904
  7118.201  7118.200  0.500  1.400531  152.739  37.6451  1.742691
  7119.099  7119.100  0.500  1.401006  152.645  37.6039  1.378917
  7120.002  7120.000  0.500  1.402991  152.557  37.5079  1.076551
  7120.896  7120.900  0.500  1.408308  152.455  37.284  0.824450
  7121.797  7121.800  0.500  1.417454  152.384  36.9272  0.652937
  7122.705  7122.700  0.500  1.432669  152.279  36.3447  0.539299
  7123.602  7123.600  0.500  1.450370  152.215  35.6919  0.462937
  7124.499  7124.500  0.500  1.466970  152.13  35.0846  0.408498
  7125.397  7125.400  0.500  1.486540  152.039  34.3842  0.363387
  7126.299  7126.300  0.500  1.510631  151.953  33.5468  0.323108
  7127.203  7127.200  0.500  1.537990  151.868  32.6231  0.282388
  7128.099  7128.100  0.500  1.565471  151.78  31.7203  0.241032
  7128.994  7129.000  0.500  1.593542  151.7  30.8261  0.201704
  7129.901  7129.900  0.500  1.611561  151.595  30.2548  0.171607
  7130.802  7130.800  0.500  1.614143  151.497  30.1571  0.157651
  7131.701  7131.700  0.500  1.609034  151.412  30.2946  0.161543
  7132.603  7132.600  0.500  1.603613  151.378  30.4525  0.180169
  7133.494  7133.500  0.500  1.600502  151.373  30.5464  0.205617
  7134.396  7134.400  0.500  1.596137  151.351  30.6755  0.231200
  7135.305  7135.300  0.500  1.590135  151.349  30.8598  0.251422
  7136.201  7136.200  0.500  1.585161  151.318  31.0072  0.263201
  7136.996  7137.000  0.500  1.581616  151.295  31.1128  0.266572
  7140.023  7140.010  0.500  1.560035  151.287  31.7897  0.242920
  7143.227  7143.200  0.500  1.543018  151.288  32.3356  0.242162
  7146.557  7146.560  0.500  1.533727  151.264  32.6321  0.237323
  7150.080  7150.080  0.500  1.517316  151.252  33.1696  0.201617
  7153.779  7153.780  0.500  1.497085  151.234  33.8435  0.193939
  7157.650  7157.650  0.500  1.485224  151.187  34.2365  0.204805
  7161.705  7161.700  0.500  1.480252  151.1  34.3873  0.209127
  7165.909  7165.910  0.500  1.484409  151.546  34.3459  0.220549
  7170.294  7170.290  0.500  1.492663  151.457  34.0435  0.228043
  7174.858  7174.850  0.500  1.502540  151.348  33.6847  0.255878
  7179.594  7179.580  0.500  1.503455  151.297  33.6425  0.294583
  7184.487  7184.480  0.500  1.496736  151.223  33.8527  0.289368
  7189.559  7189.550  0.500  1.492183  151.161  33.9934  0.250720
  7194.803  7194.790  0.500  1.487405  150.959  34.1105  0.220262
  7200.215  7200.210  0.500  1.481788  150.886  34.2861  0.254512
  7205.801  7205.790  0.500  1.472677  150.77  34.5732  0.321119
  7211.551  7211.550  0.500  1.462959  150.635  34.8795  0.289565
  7217.496  7217.480  0.500  1.454909  150.502  35.1304  0.176882
  7223.582  7223.580  0.500  1.449057  150.338  35.2982  0.170454
  7229.860  7229.850  0.500  1.445483  150.41  35.4415  0.259274
  7236.303  7236.290  0.500  1.441348  150.262  35.5533  0.362600
  7242.908  7242.900  0.500  1.436912  150.153  35.6854  0.359461
  7249.699  7249.690  0.500  1.429995  149.935  35.8809  0.322080
  7256.664  7256.650  0.500  1.423691  149.937  36.1083  0.344468
  7263.780  7263.770  0.500  1.420677  135.824  32.8083  0.292803
  7271.085  7271.070  0.500  1.416019  150.112  36.4289  0.294628
  7278.564  7278.550  0.500  1.411562  150.092  36.5867  0.266533
  7286.200  7286.190  0.500  1.403732  149.7  36.7781  0.242137
  7294.009  7294.000  0.500  1.394091  149.75  37.1466  0.272354
  7302.008  7301.990  0.500  1.385691  148.269  37.0896  0.354352
  7310.163  7310.150  0.500  1.377757  149.534  37.704  0.398169
  7318.481  7318.470  0.500  1.370155  149.378  37.9521  0.401653
  7326.976  7326.970  0.500  1.364487  149.194  38.1208  0.407526
  7335.663  7335.650  0.500  1.358806  148.996  38.2871  0.428853
  7344.502  7344.490  0.500  1.351939  148.779  38.4947  0.416446
  7353.506  7353.500  0.500  1.343425  148.612  38.7803  0.357874
  7362.705  7362.690  0.500  1.334567  148.397  39.0688  0.323955
  7372.058  7372.050  0.500  1.326795  148.197  39.3205  0.340660
  7381.584  7381.570  0.500  1.320319  147.99  39.5208  0.450071
  7391.277  7391.270  0.500  1.313029  147.806  39.7605  0.497172
  7401.157  7401.150  0.500  1.304975  147.56  40.0153  0.484970
  7411.196  7411.190  0.500  1.297104  147.322  40.2663  0.488576
  7421.413  7421.400  0.500  1.288450  147.061  40.5443  0.499112
  7431.800  7431.790  0.500  1.279229  146.791  40.845  0.522083
  7442.354  7442.350  0.500  1.270463  146.431  41.1034  0.500522
  7453.093  7453.080  0.500  1.262360  144.901  41.005  0.470675
  7463.990  7463.980  0.500  1.254260  145.952  41.6381  0.489383
  7475.055  7475.050  0.500  1.246121  145.754  41.9215  0.539584
  7486.305  7486.290  0.500  1.237775  145.404  42.1714  0.583792
  7497.722  7497.710  0.500  1.229126  145.098  42.4481  0.619876
  7509.304  7509.290  0.500  1.219753  144.683  42.7252  0.617258
  7521.061  7521.050  0.500  1.210964  144.366  43.0082  0.632841
  7532.999  7532.980  0.500  1.201818  143.989  43.29  0.637687
  7545.102  7545.080  0.500  1.193438  143.581  43.5305  0.653221
  7557.368  7557.350  0.500  1.184547  143.753  43.9718  0.658067
  7569.804  7569.790  0.500  1.175033  143.349  44.2675  0.661184
  7582.429  7582.410  0.500  1.165984  142.934  44.5403  0.708777
  7595.202  7595.190  0.500  1.156878  142.357  44.7664  0.737988
  7608.167  7608.150  0.500  1.147333  141.358  44.8788  0.753445
  7621.297  7621.280  0.500  1.137774  141.168  45.2489  0.778762
  7634.596  7634.580  0.500  1.128283  140.917  45.599  0.795616
  7648.062  7648.050  0.500  1.119073  140.52  45.8913  0.831713
  7661.713  7661.700  0.500  1.109550  139.941  46.1397  0.850278
  7675.523  7675.510  0.500  1.100305  139.41  46.3913  0.854283
  7689.516  7689.500  0.500  1.090539  139.103  46.7434  0.871043
  7703.670  7703.660  0.500  1.081017  138.388  46.948  0.901883
  7717.995  7717.990  0.500  1.071439  137.754  47.1829  0.936207
  7732.506  7732.490  0.500  1.061671  137.195  47.4525  0.963998
  7747.173  7747.160  0.500  1.051739  136.741  47.7678  0.990041
  7762.023  7762.000  0.500  1.042005  136.092  48.0059  1.015894
  7777.036  7777.020  0.500  1.032416  135.501  48.258  1.050703
  7792.203  7792.200  0.500  1.022609  134.938  48.531  1.080123
  7807.564  7807.560  0.500  1.012742  134.265  48.7681  1.101945
  7823.094  7823.090  0.500  1.002749  133.651  49.0324  1.127052
  7838.794  7838.790  0.500  0.992908  132.713  49.17  1.151524
  7854.666  7854.660  0.500  0.983027  131.416  49.1726  1.176321
  7870.725  7870.710  0.500  0.973021  131.724  49.7838  1.221821
  7886.929  7886.920  0.500  0.963087  131.017  50.0108  1.258691
  7903.324  7903.310  0.500  0.953310  130.269  50.2137  1.293515
  7919.884  7919.870  0.500  0.943241  129.544  50.4395  1.328306
  7936.618  7936.600  0.500  0.933300  128.566  50.559  1.358202
  7953.517  7953.500  0.500  0.923068  127.967  50.841  1.389802
  7964.897  7964.860  0.500  0.916432  127.36  50.9367  1.411249