Folder: webxdiviewer/xdidata/Fe (part 5)

File: Fe-Fe3Oxalate.xdi
# XDI/1.0 BlueSky/1.10.0 BMM/2023-1.0-py310-tiled
# Beamline.name: BMM (06BM) -- Beamline for Materials Measurement (NIST)
# Beamline.xray_source: NSLS-II three-pole wiggler
# Beamline.collimation: paraboloid mirror, 5 nm Rh on 30 nm Pt
# Beamline.focusing: not in use
# Beamline.harmonic_rejection: flat mirror, Si stripe, pitch = 7.0 mrad relative to beam
# Beamline.software: Bluesky 1.10.0, Ophyd 1.7.0, DataBroker 2.0.0b13, Python 3.10.8, 2023-1.0-py310-tiled
# Detector.I0: 10 cm N2
# Detector.I1: 25 cm N2
# Detector.I2: 25 cm N2
# Element.symbol: Fe
# Element.edge: K
# Element.reference: Fe
# Element.reference_material: Fe foil
# Facility.name: NSLS-II
# Facility.energy: 3.0
# Facility.current: 400.3
# Facility.mode: top-off
# Facility.GUP: 123456
# Facility.SAF: 301027
# Facility.cycle: 2023-2
# Mono.name: Si(111)
# Mono.d_spacing: 3.13519
# Mono.encoder_resolution: 0.0000050 deg/ct
# Mono.angle_offset: 16.0754 deg
# Mono.scan_mode: pseudo channel cut
# Mono.scan_type: step
# Mono.direction: forward in energy
# Sample.name: Fe2(C2O4)3(H2O)6
# Sample.prep: PEG pellet
# Sample.x: 116.329 mm
# Sample.y: 114.126 mm
# Sample.SDD_position: 205.000 mm
# Scan.experimenters: Bruce Ravel
# Scan.edge_energy: 7112.0
# Scan.start_time: 2023-05-05T18:59:07
# Scan.end_time: 2023-05-05T19:07:20
# Scan.transient_id: 74571
# Scan.uid: 59b9a2a3-52cd-4206-91a3-442220bb8a6e
# Scan.plot_hint: ln(I0/It)  --  ln($5/$6)
# Column.1: energy eV
# Column.2: requested_energy eV
# Column.3: measurement_time seconds
# Column.4: xmu
# Column.5: I0 nA
# Column.6: It nA
# Column.7: Ir nA
# ///////////
# courtesy Martin Stennett, University of Sheffield
# -----------
# energy  requested_energy  measurement_time  xmu  I0  It  Ir
  6912.007  6912.000  0.500  1.758884  153.881  26.504  4.969621
  6942.015  6942.000  0.500  1.727948  153.649  27.2955  5.227750
  6972.030  6972.000  0.500  1.697632  153.583  28.1237  5.499725
  7002.004  7002.000  0.500  1.667820  153.441  28.9479  5.776613
  7032.012  7032.000  0.500  1.638796  153.225  29.7585  6.055167
  7062.008  7062.000  0.500  1.610620  152.336  30.4312  6.303092
  7083.976  7084.000  0.500  1.591729  152.701  31.0858  6.495438
  7089.983  7090.000  0.500  1.587293  152.824  31.2493  6.533317
  7095.984  7096.000  0.500  1.583488  152.779  31.3591  6.541814
  7101.999  7102.000  0.500  1.580978  152.667  31.4149  6.496415
  7102.882  7102.900  0.500  1.581425  152.676  31.4027  6.477766
  7103.783  7103.800  0.500  1.581015  152.646  31.4095  6.457893
  7104.683  7104.700  0.500  1.581349  152.635  31.3966  6.430014
  7105.589  7105.600  0.500  1.581821  152.65  31.3849  6.394152
  7106.488  7106.500  0.500  1.582305  152.58  31.3553  6.342295
  7107.387  7107.400  0.500  1.582679  152.567  31.341  6.279626
  7108.289  7108.300  0.500  1.584232  152.548  31.2883  6.175387
  7109.186  7109.200  0.500  1.585406  152.522  31.2463  6.014515
  7110.097  7110.100  0.500  1.588668  152.504  31.1408  5.663008
  7110.995  7111.000  0.500  1.598279  152.426  30.8272  4.757480
  7111.889  7111.900  0.500  1.609302  152.352  30.4745  3.406161
  7112.796  7112.800  0.500  1.609747  152.268  30.4443  2.654378
  7113.697  7113.700  0.500  1.611021  152.246  30.401  2.262650
  7114.600  7114.600  0.500  1.613046  152.172  30.3248  1.984562
  7115.498  7115.500  0.500  1.620176  152.197  30.1142  1.840799
  7116.395  7116.400  0.500  1.635921  152.155  29.6358  1.756120
  7117.303  7117.300  0.500  1.660407  152.083  28.9052  1.602034
  7118.199  7118.200  0.500  1.713438  152.082  27.4121  1.287570
  7119.101  7119.100  0.500  1.828233  152.028  24.4304  0.912660
  7119.995  7120.000  0.500  1.980523  151.989  20.9741  0.615645
  7120.894  7120.900  0.500  2.158166  151.93  17.5536  0.396215
  7121.803  7121.800  0.500  2.328178  152.449  14.8597  0.266055
  7122.702  7122.700  0.500  2.444516  152.427  13.2258  0.198577
  7123.600  7123.600  0.500  2.556115  152.341  11.8225  0.154812
  7124.503  7124.500  0.500  2.691445  152.307  10.3238  0.121375
  7125.397  7125.400  0.500  2.825717  152.254  9.023483  0.095940
  7126.303  7126.300  0.500  2.903674  152.195  8.343538  0.080957
  7127.205  7127.200  0.500  2.885563  152.17  8.494628  0.074170
  7128.099  7128.100  0.500  2.816336  152.063  9.097138  0.069925
  7128.998  7129.000  0.500  2.754972  151.999  9.668763  0.063945
  7129.899  7129.900  0.500  2.710844  151.884  10.0974  0.057884
  7130.800  7130.800  0.500  2.676557  151.815  10.4448  0.054934
  7131.704  7131.700  0.500  2.639899  151.765  10.8313  0.057748
  7132.597  7132.600  0.500  2.599994  151.701  11.2675  0.066269
  7133.498  7133.500  0.500  2.555460  151.715  11.7817  0.078919
  7134.403  7134.400  0.500  2.514123  151.691  12.2769  0.092122
  7135.296  7135.300  0.500  2.484504  151.669  12.6442  0.102701
  7136.203  7136.200  0.500  2.466409  151.63  12.8717  0.109428
  7136.998  7137.000  0.500  2.461700  151.631  12.9326  0.111108
  7140.023  7140.010  0.500  2.452880  151.614  13.0457  0.100173
  7143.190  7143.200  0.500  2.442366  151.551  13.1781  0.098549
  7146.559  7146.560  0.500  2.389194  151.533  13.8961  0.101654
  7150.087  7150.080  0.500  2.320827  151.537  14.8798  0.090695
  7153.786  7153.780  0.500  2.318187  151.478  14.9133  0.085572
  7157.650  7157.650  0.500  2.336810  151.434  14.6339  0.087634
  7161.707  7161.700  0.500  2.374516  151.347  14.0843  0.085627
  7165.913  7165.910  0.500  2.443583  151.221  13.1334  0.084295
  7170.296  7170.290  0.500  2.496675  151.117  12.4458  0.083301
  7174.849  7174.850  0.500  2.505716  151.005  12.3246  0.093323
  7179.589  7179.580  0.500  2.473488  150.934  12.7223  0.111319
  7184.496  7184.480  0.500  2.448898  150.849  13.0317  0.111800
  7189.557  7189.550  0.500  2.427065  150.766  13.312  0.098620
  7194.798  7194.790  0.500  2.400788  150.538  13.6457  0.088117
  7200.222  7200.210  0.500  2.375095  150.443  13.9921  0.103719
  7205.795  7205.790  0.500  2.361527  150.303  14.17  0.131493
  7211.560  7211.550  0.500  2.350587  150.126  14.309  0.119464
  7217.494  7217.480  0.500  2.347458  149.994  14.3412  0.072824
  7223.595  7223.580  0.500  2.357662  149.816  14.1787  0.068239
  7229.860  7229.850  0.500  2.369853  149.862  14.0113  0.101845
  7236.303  7236.290  0.500  2.374221  149.704  13.9355  0.141873
  7242.908  7242.900  0.500  2.370556  149.61  13.9779  0.141130
  7249.701  7249.690  0.500  2.358993  149.352  14.116  0.126664
  7256.662  7256.650  0.500  2.345798  149.317  14.3002  0.136419
  7263.782  7263.770  0.500  2.334277  137.889  13.3588  0.119424
  7271.083  7271.070  0.500  2.323962  149.517  14.6355  0.118600
  7278.559  7278.550  0.500  2.313472  149.477  14.7859  0.107977
  7286.202  7286.190  0.500  2.301436  149.189  14.936  0.098387
  7294.009  7294.000  0.500  2.288722  149.618  15.1707  0.110916
  7301.999  7301.990  0.500  2.277341  147.702  15.1478  0.144510
  7310.163  7310.150  0.500  2.270006  149.374  15.432  0.162823
  7318.483  7318.470  0.500  2.265078  149.173  15.4875  0.163947
  7326.983  7326.970  0.500  2.259286  149.007  15.5601  0.166123
  7335.665  7335.650  0.500  2.251904  148.855  15.6593  0.175118
  7344.502  7344.490  0.500  2.243135  148.585  15.7687  0.170767
  7353.515  7353.500  0.500  2.233152  148.411  15.9082  0.147133
  7362.698  7362.690  0.500  2.221834  148.197  16.066  0.133308
  7372.067  7372.050  0.500  2.209925  147.994  16.2362  0.140679
  7381.584  7381.570  0.500  2.197207  147.738  16.4156  0.186631
  7391.279  7391.270  0.500  2.183742  147.511  16.6126  0.207599
  7401.162  7401.150  0.500  2.171545  147.293  16.7916  0.203327
  7411.203  7411.190  0.500  2.161436  147.046  16.9338  0.205428
  7421.404  7421.400  0.500  2.152456  146.738  17.0508  0.209884
  7431.802  7431.790  0.500  2.143994  146.474  17.1647  0.219282
  7442.364  7442.350  0.500  2.134568  146.077  17.2803  0.210429
  7453.093  7453.080  0.500  2.123159  144.764  17.3215  0.198511
  7463.988  7463.980  0.500  2.111387  145.652  17.634  0.207184
  7475.060  7475.050  0.500  2.099495  145.35  17.808  0.229054
  7486.305  7486.290  0.500  2.088184  145.035  17.9716  0.248724
  7497.731  7497.710  0.500  2.076085  144.694  18.1476  0.264784
  7509.321  7509.290  0.500  2.063863  144.287  18.3191  0.264520
  7521.040  7521.050  0.500  2.051429  143.891  18.4973  0.272121
  7532.982  7532.980  0.500  2.039890  143.506  18.6619  0.274835
  7545.083  7545.080  0.500  2.028306  143.1  18.8259  0.282196
  7557.373  7557.350  0.500  2.016909  142.667  18.9842  0.283790
  7569.779  7569.790  0.500  2.005109  142.23  19.1506  0.285544
  7582.432  7582.410  0.500  1.993268  141.746  19.3127  0.306820
  7595.175  7595.190  0.500  1.981091  141.121  19.4632  0.320795
  7608.172  7608.150  0.500  1.968755  140.069  19.5579  0.328377
  7621.262  7621.280  0.500  1.956384  139.88  19.7746  0.340105
  7634.603  7634.580  0.500  1.944095  139.652  19.9866  0.348656
  7648.057  7648.050  0.500  1.931096  139.095  20.1672  0.365155
  7661.683  7661.700  0.500  1.918206  138.566  20.3512  0.374763
  7675.503  7675.510  0.500  1.905432  137.961  20.5228  0.377937
  7689.526  7689.500  0.500  1.893113  137.652  20.7307  0.386029
  7703.695  7703.660  0.500  1.880751  136.744  20.8501  0.400572
  7718.010  7717.990  0.500  1.868584  136.308  21.038  0.417218
  7732.488  7732.490  0.500  1.856439  135.707  21.2012  0.430488
  7747.152  7747.160  0.500  1.843297  135.164  21.3958  0.443511
  7761.993  7762.000  0.500  1.830623  134.566  21.5727  0.456492
  7777.013  7777.020  0.500  1.817728  133.988  21.7589  0.473755
  7792.187  7792.200  0.500  1.804792  133.336  21.935  0.487602
  7807.553  7807.560  0.500  1.791715  132.75  22.126  0.499607
  7823.063  7823.090  0.500  1.778773  132.117  22.3073  0.512185
  7838.770  7838.790  0.500  1.765684  131.643  22.5201  0.527048
  7854.651  7854.660  0.500  1.753026  130.398  22.5913  0.540117
  7870.688  7870.710  0.500  1.740313  130.6  22.9158  0.562138
  7886.913  7886.920  0.500  1.727537  129.856  23.0783  0.580560
  7903.287  7903.310  0.500  1.714545  129.154  23.2536  0.598767
  7919.846  7919.870  0.500  1.701331  128.406  23.4265  0.616473
  7936.570  7936.600  0.500  1.688465  127.418  23.5473  0.632618
  7953.474  7953.500  0.500  1.675286  126.675  23.7204  0.648398
  7964.835  7964.860  0.500  1.666534  126.12  23.8242  0.659902

File: Fe-Ferrihydrite.xdi
# XDI/1.0 BlueSky/1.10.0 BMM/2023-1.0-py310-tiled
# Beamline.name: BMM (06BM) -- Beamline for Materials Measurement (NIST)
# Beamline.xray_source: NSLS-II three-pole wiggler
# Beamline.collimation: paraboloid mirror, 5 nm Rh on 30 nm Pt
# Beamline.focusing: not in use
# Beamline.harmonic_rejection: flat mirror, Si stripe, pitch = 7.0 mrad relative to beam
# Beamline.software: Bluesky 1.10.0, Ophyd 1.7.0, DataBroker 2.0.0b13, Python 3.10.8, 2023-1.0-py310-tiled
# Detector.I0: 10 cm N2
# Detector.I1: 25 cm N2
# Detector.I2: 25 cm N2
# Element.symbol: Fe
# Element.edge: K
# Element.reference: Fe
# Element.reference_material: Fe foil
# Facility.name: NSLS-II
# Facility.energy: 3.0
# Facility.current: 400.2
# Facility.mode: top-off
# Facility.GUP: 123456
# Facility.SAF: 301027
# Facility.cycle: 2023-2
# Mono.name: Si(111)
# Mono.d_spacing: 3.13519
# Mono.encoder_resolution: 0.0000050 deg/ct
# Mono.angle_offset: 16.0754 deg
# Mono.scan_mode: pseudo channel cut
# Mono.scan_type: step
# Mono.direction: forward in energy
# Sample.name: FeOOH
# Sample.prep: powder on tape
# Sample.x: 116.329 mm
# Sample.y: 114.126 mm
# Sample.SDD_position: 205.000 mm
# Scan.experimenters: Bruce Ravel
# Scan.edge_energy: 7112.0
# Scan.start_time: 2023-05-05T17:21:47
# Scan.end_time: 2023-05-05T17:29:59
# Scan.transient_id: 74516
# Scan.uid: 4a6fd2b6-d1e0-421e-a7af-70e405e3d10c
# Scan.plot_hint: ln(I0/It)  --  ln($5/$6)
# Column.1: energy eV
# Column.2: requested_energy eV
# Column.3: measurement_time seconds
# Column.4: xmu
# Column.5: I0 nA
# Column.6: It nA
# Column.7: Ir nA
# ///////////
# Welcome to BMM
# -----------
# energy  requested_energy  measurement_time  xmu  I0  It  Ir
  6911.999  6912.000  0.500  1.761133  153.802  26.4309  4.961548
  6942.023  6942.000  0.500  1.730263  153.641  27.231  5.220610
  6972.008  6972.000  0.500  1.699957  153.62  28.0651  5.493523
  7002.013  7002.000  0.500  1.669762  153.514  28.9053  5.773206
  7032.012  7032.000  0.500  1.640695  153.319  29.7201  6.053258
  7062.006  7062.000  0.500  1.611436  152.409  30.4209  6.306187
  7083.978  7084.000  0.500  1.591362  152.818  31.1211  6.508796
  7089.983  7090.000  0.500  1.585686  152.929  31.3209  6.553673
  7096.323  7096.000  0.500  1.580382  152.829  31.4669  6.569537
  7101.995  7102.000  0.500  1.575225  152.777  31.619  6.543946
  7102.884  7102.900  0.500  1.574665  152.755  31.632  6.530399
  7103.781  7103.800  0.500  1.573925  152.719  31.6479  6.512597
  7104.688  7104.700  0.500  1.573690  152.681  31.6476  6.486276
  7105.582  7105.600  0.500  1.572938  152.652  31.6654  6.455435
  7106.492  7106.500  0.500  1.572214  152.65  31.688  6.413843
  7107.385  7107.400  0.500  1.571500  152.619  31.704  6.353840
  7108.289  7108.300  0.500  1.571415  152.596  31.7019  6.258544
  7109.193  7109.200  0.500  1.570759  152.579  31.7192  6.102813
  7110.093  7110.100  0.500  1.570545  152.527  31.7153  5.757427
  7110.995  7111.000  0.500  1.570490  152.439  31.6986  4.848769
  7111.893  7111.900  0.500  1.572278  152.33  31.6194  3.497314
  7112.790  7112.800  0.500  1.578798  152.281  31.4039  2.727442
  7113.697  7113.700  0.500  1.586031  152.623  31.2476  2.316300
  7114.598  7114.600  0.500  1.585333  152.66  31.277  2.042246
  7115.500  7115.500  0.500  1.580163  152.633  31.4335  1.920318
  7116.395  7116.400  0.500  1.579627  152.603  31.4442  1.862393
  7117.295  7117.300  0.500  1.580452  152.564  31.4101  1.736017
  7118.201  7118.200  0.500  1.581747  152.519  31.3602  1.459496
  7119.101  7119.100  0.500  1.584228  152.464  31.2713  1.153383
  7119.995  7120.000  0.500  1.591424  152.438  31.0417  0.898205
  7120.898  7120.900  0.500  1.605507  152.369  30.5939  0.680223
  7121.797  7121.800  0.500  1.630422  152.319  29.8312  0.529547
  7122.705  7122.700  0.500  1.666530  152.285  28.7669  0.429195
  7123.602  7123.600  0.500  1.704389  152.215  27.6854  0.360374
  7124.495  7124.500  0.500  1.737558  152.193  26.7782  0.313146
  7125.401  7125.400  0.500  1.775731  152.153  25.7685  0.273424
  7126.301  7126.300  0.500  1.822107  152.069  24.5872  0.237722
  7127.199  7127.200  0.500  1.874459  152.013  23.3245  0.202954
  7128.106  7128.100  0.500  1.923381  151.941  22.2005  0.169466
  7128.994  7129.000  0.500  1.963357  151.877  21.3215  0.140426
  7129.899  7129.900  0.500  1.994877  151.797  20.6489  0.118003
  7130.800  7130.800  0.500  2.016135  151.695  20.2011  0.106043
  7131.706  7131.700  0.500  2.028463  151.633  19.9455  0.106627
  7132.599  7132.600  0.500  2.030668  151.621  19.9  0.117853
  7133.498  7133.500  0.500  2.024775  151.605  20.0155  0.134857
  7134.398  7134.400  0.500  2.012896  151.585  20.2519  0.152843
  7135.303  7135.300  0.500  1.999182  151.576  20.5303  0.167333
  7136.201  7136.200  0.500  1.986580  151.574  20.7905  0.176955
  7136.996  7137.000  0.500  1.977856  151.574  20.9727  0.180054
  7140.030  7140.010  0.500  1.940108  151.559  21.7773  0.167101
  7143.222  7143.200  0.500  1.904900  151.551  22.5565  0.169267
  7146.554  7146.560  0.500  1.891522  151.5  22.8526  0.167010
  7150.076  7150.080  0.500  1.864344  151.456  23.4753  0.143157
  7153.786  7153.780  0.500  1.827479  151.447  24.3555  0.140041
  7157.650  7157.650  0.500  1.805776  151.4  24.8822  0.149196
  7161.698  7161.700  0.500  1.795629  151.294  25.1184  0.153053
  7165.909  7165.910  0.500  1.800364  151.189  24.9823  0.160684
  7170.296  7170.290  0.500  1.816622  151.081  24.5618  0.164817
  7174.856  7174.850  0.500  1.837545  150.973  24.036  0.183026
  7179.592  7179.580  0.500  1.845419  150.914  23.8382  0.209010
  7184.487  7184.480  0.500  1.844455  150.778  23.8397  0.204380
  7189.566  7189.550  0.500  1.839113  150.725  23.959  0.177144
  7194.794  7194.790  0.500  1.830649  150.54  24.1331  0.156083
  7200.215  7200.210  0.500  1.821484  150.442  24.3393  0.180809
  7205.797  7205.790  0.500  1.810663  150.316  24.5835  0.228847
  7211.557  7211.550  0.500  1.798165  150.138  24.8632  0.207180
  7217.489  7217.480  0.500  1.788269  149.954  25.0797  0.126700
  7223.588  7223.580  0.500  1.781351  149.824  25.2319  0.122196
  7229.860  7229.850  0.500  1.775837  150.405  25.4699  0.186587
  7236.303  7236.290  0.500  1.768241  150.229  25.6341  0.261686
  7242.908  7242.900  0.500  1.760496  150.117  25.8141  0.260675
  7249.696  7249.690  0.500  1.754532  149.88  25.9275  0.233140
  7256.659  7256.650  0.500  1.751212  149.887  26.0149  0.248464
  7263.782  7263.770  0.500  1.749502  136.589  23.7475  0.212518
  7271.083  7271.070  0.500  1.745262  150.025  26.1942  0.212312
  7278.564  7278.550  0.500  1.738651  150.014  26.366  0.192883
  7286.202  7286.190  0.500  1.729391  149.595  26.5371  0.174825
  7294.016  7294.000  0.500  1.717914  149.648  26.8529  0.197167
  7302.003  7301.990  0.500  1.706873  148.022  26.856  0.256889
  7310.168  7310.150  0.500  1.697760  149.437  27.3609  0.289247
  7318.483  7318.470  0.500  1.689727  149.254  27.5477  0.292264
  7326.981  7326.970  0.500  1.682189  149.099  27.7275  0.296839
  7335.665  7335.650  0.500  1.674386  148.912  27.9095  0.313286
  7344.506  7344.490  0.500  1.665561  148.67  28.1112  0.304528
  7353.510  7353.500  0.500  1.655810  148.454  28.3454  0.261911
  7362.707  7362.690  0.500  1.646410  148.305  28.5844  0.237606
  7372.056  7372.050  0.500  1.637989  148.101  28.7866  0.249638
  7381.586  7381.570  0.500  1.630073  147.896  28.975  0.330405
  7391.277  7391.270  0.500  1.621521  147.672  29.1796  0.365414
  7401.160  7401.150  0.500  1.612356  147.431  29.4003  0.356796
  7411.196  7411.190  0.500  1.602740  147.236  29.6452  0.360356
  7421.411  7421.400  0.500  1.592346  146.955  29.8976  0.368643
  7431.798  7431.790  0.500  1.581809  146.692  30.1602  0.385979
  7442.352  7442.350  0.500  1.571650  146.327  30.3924  0.370806
  7453.095  7453.080  0.500  1.562037  144.885  30.3837  0.349042
  7463.990  7463.980  0.500  1.552267  145.865  30.8894  0.363705
  7475.060  7475.050  0.500  1.542316  145.663  31.1552  0.401571
  7486.312  7486.290  0.500  1.532536  145.3  31.3829  0.434821
  7497.724  7497.710  0.500  1.522429  144.959  31.6273  0.462434
  7509.309  7509.290  0.500  1.512152  144.586  31.8718  0.460697
  7521.069  7521.050  0.500  1.501881  144.231  32.1217  0.473365
  7533.004  7532.980  0.500  1.492007  143.848  32.3544  0.477268
  7545.105  7545.080  0.500  1.481534  143.45  32.6047  0.490032
  7557.346  7557.350  0.500  1.470810  143.035  32.8608  0.492676
  7569.811  7569.790  0.500  1.460141  142.614  33.1155  0.495393
  7582.405  7582.410  0.500  1.449578  142.158  33.3602  0.531511
  7595.209  7595.190  0.500  1.438729  141.567  33.5838  0.554228
  7608.172  7608.150  0.500  1.428237  140.465  33.6738  0.565968
  7621.292  7621.280  0.500  1.417213  140.337  34.016  0.586316
  7634.596  7634.580  0.500  1.406602  140.086  34.3176  0.599486
  7648.037  7648.050  0.500  1.395795  139.56  34.56  0.626836
  7661.693  7661.700  0.500  1.384551  139.047  34.8223  0.642011
  7675.528  7675.510  0.500  1.373623  138.409  35.0435  0.646140
  7689.523  7689.500  0.500  1.362770  137.961  35.3112  0.658533
  7703.683  7703.660  0.500  1.351671  137.218  35.513  0.682746
  7718.010  7717.990  0.500  1.340536  137.124  35.8861  0.713091
  7732.475  7732.490  0.500  1.329312  136.545  36.1378  0.734487
  7747.186  7747.160  0.500  1.318221  135.996  36.394  0.754987
  7761.998  7762.000  0.500  1.306835  135.336  36.6321  0.776220
  7777.029  7777.020  0.500  1.295598  134.684  36.8677  0.803428
  7792.211  7792.200  0.500  1.284360  134.087  37.119  0.826760
  7807.577  7807.560  0.500  1.272912  133.393  37.3521  0.844904
  7823.105  7823.090  0.500  1.261847  132.802  37.6004  0.864983
  7838.804  7838.790  0.500  1.250245  131.832  37.7614  0.884578
  7854.693  7854.660  0.500  1.238739  130.543  37.8249  0.905944
  7870.728  7870.710  0.500  1.227306  130.753  38.3213  0.941511
  7886.945  7886.920  0.500  1.216017  130.079  38.5565  0.971186
  7903.287  7903.310  0.500  1.204552  129.301  38.7677  0.999270
  7919.854  7919.870  0.500  1.193196  128.585  38.9934  1.027609
  7936.580  7936.600  0.500  1.181644  127.542  39.1265  1.052240
  7953.525  7953.500  0.500  1.170201  126.905  39.3792  1.078102
  7964.846  7964.860  0.500  1.162591  126.343  39.5043  1.095326