Folder: webxdiviewer/xdidata/Fe

Note: xdidata/README.md
# bmm-standards
A pretty webpage for BMM's collection of common XAFS materials

[BMM's common materials collection](./BMM-standards.html)

Plotting of the data will happen soon.

Periodic table adapted from [some guy named Daniel](https://codepen.io/gooseofmusic/pen/PjKdNQ)

[This](https://www.coderstool.com/scss-to-css) is a helpful tool for
dealing with Sassy CSS.

File: Fe-Aegerine.xdi
# XDI/1.0 BlueSky/1.10.0 BMM/2023-1.0-py310-tiled
# Beamline.name: BMM (06BM) -- Beamline for Materials Measurement (NIST)
# Beamline.xray_source: NSLS-II three-pole wiggler
# Beamline.collimation: paraboloid mirror, 5 nm Rh on 30 nm Pt
# Beamline.focusing: not in use
# Beamline.harmonic_rejection: flat mirror, Si stripe, pitch = 7.0 mrad relative to beam
# Beamline.software: Bluesky 1.10.0, Ophyd 1.7.0, DataBroker 2.0.0b13, Python 3.10.8, 2023-1.0-py310-tiled
# Detector.I0: 10 cm N2
# Detector.I1: 25 cm N2
# Detector.I2: 25 cm N2
# Element.symbol: Fe
# Element.edge: K
# Element.reference: Fe
# Element.reference_material: Fe foil
# Facility.name: NSLS-II
# Facility.energy: 3.0
# Facility.current: 399.1
# Facility.mode: top-off
# Facility.GUP: 123456
# Facility.SAF: 301027
# Facility.cycle: 2023-2
# Mono.name: Si(111)
# Mono.d_spacing: 3.13519
# Mono.encoder_resolution: 0.0000050 deg/ct
# Mono.angle_offset: 16.0754 deg
# Mono.scan_mode: pseudo channel cut
# Mono.scan_type: step
# Mono.direction: forward in energy
# Sample.name: NaFeSi2O6
# Sample.prep: PEG pellet
# Sample.x: 116.329 mm
# Sample.y: 114.126 mm
# Sample.SDD_position: 205.000 mm
# Scan.experimenters: Bruce Ravel
# Scan.edge_energy: 7112.0
# Scan.start_time: 2023-05-05T18:14:53
# Scan.end_time: 2023-05-05T18:22:55
# Scan.transient_id: 74546
# Scan.uid: ef611f40-a351-4c09-8037-43cde6b3e65a
# Scan.plot_hint: ln(I0/It)  --  ln($5/$6)
# Column.1: energy eV
# Column.2: requested_energy eV
# Column.3: measurement_time seconds
# Column.4: xmu
# Column.5: I0 nA
# Column.6: It nA
# Column.7: Ir nA
# ///////////
# courtesy Martin Stennett, University of Sheffield
# -----------
# energy  requested_energy  measurement_time  xmu  I0  It  Ir
  6912.009  6912.000  0.500  3.361038  153.104  5.312572  0.997334
  6942.011  6942.000  0.500  3.311168  153.031  5.581581  1.070015
  6972.010  6972.000  0.500  3.263056  153.543  5.876266  1.149899
  7002.013  7002.000  0.500  3.214679  153.462  6.164278  1.230999
  7032.014  7032.000  0.500  3.167768  153.315  6.454158  1.314358
  7062.008  7062.000  0.500  3.122386  152.456  6.715985  1.391902
  7083.983  7084.000  0.500  3.090366  152.709  6.946028  1.452179
  7089.985  7090.000  0.500  3.082188  152.828  7.008487  1.466298
  7096.016  7096.000  0.500  3.074818  152.762  7.057299  1.473153
  7102.003  7102.000  0.500  3.068544  152.723  7.099917  1.469302
  7102.889  7102.900  0.500  3.067909  152.727  7.104610  1.466311
  7103.785  7103.800  0.500  3.067175  152.704  7.108727  1.462895
  7104.686  7104.700  0.500  3.066441  152.706  7.114050  1.457473
  7105.584  7105.600  0.500  3.065972  152.703  7.117249  1.451014
  7106.490  7106.500  0.500  3.065541  152.641  7.117425  1.440553
  7107.387  7107.400  0.500  3.065443  152.641  7.118134  1.427385
  7108.289  7108.300  0.500  3.065711  152.638  7.116072  1.405604
  7109.188  7109.200  0.500  3.065793  152.606  7.114000  1.369742
  7110.093  7110.100  0.500  3.066924  152.556  7.103658  1.292653
  7110.999  7111.000  0.500  3.069689  152.495  7.081189  1.089870
  7111.887  7111.900  0.500  3.076002  152.372  7.030974  0.785913
  7112.790  7112.800  0.500  3.089851  152.275  6.929853  0.604756
  7113.701  7113.700  0.500  3.103664  152.252  6.833760  0.508434
  7114.598  7114.600  0.500  3.110121  152.22  6.788341  0.444791
  7115.495  7115.500  0.500  3.095731  152.204  6.885987  0.421180
  7116.393  7116.400  0.500  3.087891  152.14  6.937282  0.411435
  7117.297  7117.300  0.500  3.095373  152.127  6.884983  0.381826
  7118.201  7118.200  0.500  3.113124  152.066  6.761124  0.316774
  7119.097  7119.100  0.500  3.142538  152.036  6.563868  0.244448
  7119.998  7120.000  0.500  3.188126  151.997  6.269760  0.183104
  7120.894  7120.900  0.500  3.257458  151.971  5.848765  0.131720
  7121.799  7121.800  0.500  3.347971  151.885  5.339620  0.095650
  7122.702  7122.700  0.500  3.475798  151.84  4.697504  0.070681
  7123.600  7123.600  0.500  3.656861  151.816  3.918892  0.051656
  7124.497  7124.500  0.500  3.825703  151.778  3.309236  0.039144
  7125.401  7125.400  0.500  3.943519  151.704  2.940003  0.031588
  7126.299  7126.300  0.500  4.048313  151.621  2.646059  0.025939
  7127.208  7127.200  0.500  4.211194  151.535  2.247058  0.020039
  7128.099  7128.100  0.500  4.388349  151.505  1.881874  0.014693
  7128.996  7129.000  0.500  4.508726  151.447  1.667806  0.011254
  7129.903  7129.900  0.500  4.580254  151.348  1.551663  0.009171
  7130.802  7130.800  0.500  4.621682  151.239  1.487619  0.008001
  7131.701  7131.700  0.500  4.669893  151.183  1.417080  0.007860
  7132.603  7132.600  0.500  4.698125  151.113  1.376991  0.008409
  7133.498  7133.500  0.500  4.682571  151.11  1.398549  0.009639
  7134.403  7134.400  0.500  4.655881  151.104  1.436327  0.011083
  7135.303  7135.300  0.500  4.624336  151.101  1.482325  0.012391
  7136.201  7136.200  0.500  4.582564  151.559  1.550238  0.013401
  7136.996  7137.000  0.500  4.543062  151.532  1.612416  0.014139
  7140.021  7140.010  0.500  4.400122  151.506  1.859864  0.014602
  7143.192  7143.200  0.500  4.300926  151.482  2.053488  0.015695
  7146.565  7146.560  0.500  4.254545  151.469  2.150798  0.015973
  7150.089  7150.080  0.500  4.165468  151.439  2.350708  0.014690
  7153.786  7153.780  0.500  4.046412  151.441  2.647944  0.015471
  7157.650  7157.650  0.500  3.990571  151.39  2.799078  0.017025
  7161.705  7161.700  0.500  3.978429  151.283  2.831271  0.017451
  7165.917  7165.910  0.500  4.034223  151.166  2.675557  0.017350
  7170.296  7170.290  0.500  4.112991  151.079  2.471462  0.016752
  7174.851  7174.850  0.500  4.174790  150.996  2.322076  0.018013
  7179.587  7179.580  0.500  4.198738  150.92  2.265997  0.020101
  7184.492  7184.480  0.500  4.180786  150.824  2.305564  0.020026
  7189.561  7189.550  0.500  4.174406  150.723  2.318776  0.017405
  7194.798  7194.790  0.500  4.162573  150.552  2.343720  0.015395
  7200.222  7200.210  0.500  4.134331  150.425  2.408814  0.018087
  7205.803  7205.790  0.500  4.097536  150.297  2.496965  0.023515
  7211.562  7211.550  0.500  4.075228  150.169  2.551126  0.021514
  7217.489  7217.480  0.500  4.049598  149.974  2.613949  0.013491
  7223.588  7223.580  0.500  4.027700  149.824  2.669157  0.013225
  7229.864  7229.850  0.500  4.016833  149.908  2.699825  0.019964
  7236.301  7236.290  0.500  4.011585  149.739  2.710972  0.027819
  7242.912  7242.900  0.500  4.005731  149.635  2.724998  0.027687
  7249.703  7249.690  0.500  4.015107  149.347  2.694373  0.024504
  7256.664  7256.650  0.500  4.020655  149.326  2.679093  0.025741
  7263.784  7263.770  0.500  4.008215  137.465  2.497159  0.022410
  7271.085  7271.070  0.500  3.989619  149.518  2.767087  0.022635
  7278.562  7278.550  0.500  3.975425  149.49  2.806118  0.020672
  7286.198  7286.190  0.500  3.958839  149.053  2.844712  0.018849
  7294.014  7294.000  0.500  3.939774  149.084  2.900070  0.021605
  7301.997  7301.990  0.500  3.920535  147.276  2.920552  0.027999
  7310.157  7310.150  0.500  3.903585  148.872  3.002664  0.032000
  7318.481  7318.470  0.500  3.884770  148.686  3.055872  0.032544
  7326.987  7326.970  0.500  3.869904  148.532  3.098431  0.033322
  7335.658  7335.650  0.500  3.856304  148.291  3.135759  0.035385
  7344.504  7344.490  0.500  3.841441  148.02  3.176893  0.034522
  7353.517  7353.500  0.500  3.827648  147.884  3.218054  0.030100
  7362.700  7362.690  0.500  3.812785  147.673  3.261587  0.027300
  7372.065  7372.050  0.500  3.799245  147.462  3.301337  0.028762
  7381.584  7381.570  0.500  3.784733  147.236  3.344450  0.038282
  7391.279  7391.270  0.500  3.767737  147.02  3.396797  0.042647
  7401.155  7401.150  0.500  3.750765  146.72  3.447874  0.042037
  7411.201  7411.190  0.500  3.727304  146.516  3.524815  0.042966
  7421.408  7421.400  0.500  3.709034  146.229  3.582772  0.044313
  7431.798  7431.790  0.500  3.694006  146.327  3.639460  0.046696
  7442.357  7442.350  0.500  3.676258  146.144  3.699995  0.045118
  7453.095  7453.080  0.500  3.659870  144.798  3.726505  0.042844
  7463.988  7463.980  0.500  3.642208  145.592  3.813710  0.045004
  7475.058  7475.050  0.500  3.623663  145.424  3.880608  0.050055
  7486.303  7486.290  0.500  3.606597  144.962  3.934861  0.054603
  7497.741  7497.710  0.500  3.588462  144.708  3.999843  0.058553
  7509.307  7509.290  0.500  3.570322  144.286  4.061178  0.058690
  7521.076  7521.050  0.500  3.553242  143.888  4.119748  0.060846
  7533.002  7532.980  0.500  3.536326  143.521  4.179350  0.061627
  7545.115  7545.080  0.500  3.517287  143.056  4.245892  0.063809
  7557.343  7557.350  0.500  3.497635  142.669  4.318422  0.064757
  7569.811  7569.790  0.500  3.477911  142.241  4.391224  0.065768
  7582.407  7582.410  0.500  3.458923  141.771  4.460623  0.071076
  7595.182  7595.190  0.500  3.441114  141.114  4.519744  0.074712
  7608.172  7608.150  0.500  3.422366  140.051  4.570577  0.076782
  7621.302  7621.280  0.500  3.403296  139.862  4.652292  0.080088
  7634.576  7634.580  0.500  3.384502  139.651  4.733386  0.082686
  7648.035  7648.050  0.500  3.364354  139.148  4.812349  0.087257
  7661.713  7661.700  0.500  3.345657  138.59  4.883499  0.090167
  7675.491  7675.510  0.500  3.325863  137.986  4.959418  0.091389
  7689.488  7689.500  0.500  3.306279  137.61  5.043710  0.093997
  7703.647  7703.660  0.500  3.287109  136.843  5.112673  0.098467
  7717.980  7717.990  0.500  3.267301  136.258  5.192685  0.103218
  7732.508  7732.490  0.500  3.247593  135.673  5.273296  0.107281
  7747.147  7747.160  0.500  3.227450  135.16  5.360230  0.111189
  7761.977  7762.000  0.500  3.207453  134.521  5.442660  0.115211
  7777.016  7777.020  0.500  3.187191  133.906  5.528687  0.120284
  7792.190  7792.200  0.500  3.167356  133.358  5.616355  0.125093
  7807.564  7807.560  0.500  3.147728  132.692  5.699062  0.128864
  7823.078  7823.090  0.500  3.127869  132.046  5.785074  0.133046
  7838.786  7838.790  0.500  3.107884  131.084  5.858848  0.137308
  7854.640  7854.660  0.500  3.087574  129.786  5.919881  0.141684
  7870.685  7870.710  0.500  3.067433  130.042  6.052195  0.148659
  7886.931  7886.920  0.500  3.047115  129.351  6.143637  0.154767
  7903.297  7903.310  0.500  3.026894  128.602  6.232804  0.160616
  7919.895  7919.870  0.500  3.006820  127.827  6.320865  0.166617
  7936.578  7936.600  0.500  2.986798  126.861  6.399975  0.172365
  7953.479  7953.500  0.500  2.966470  126.204  6.497572  0.177825
  7964.837  7964.860  0.500  2.952911  125.651  6.557406  0.181889

File: Fe-Augite.xdi
# XDI/1.0 BlueSky/1.10.0 BMM/2023-1.0-py310-tiled
# Beamline.name: BMM (06BM) -- Beamline for Materials Measurement (NIST)
# Beamline.xray_source: NSLS-II three-pole wiggler
# Beamline.collimation: paraboloid mirror, 5 nm Rh on 30 nm Pt
# Beamline.focusing: not in use
# Beamline.harmonic_rejection: flat mirror, Si stripe, pitch = 7.0 mrad relative to beam
# Beamline.software: Bluesky 1.10.0, Ophyd 1.7.0, DataBroker 2.0.0b13, Python 3.10.8, 2023-1.0-py310-tiled
# Detector.I0: 10 cm N2
# Detector.I1: 25 cm N2
# Detector.I2: 25 cm N2
# Element.symbol: Fe
# Element.edge: K
# Element.reference: Fe
# Element.reference_material: Fe foil
# Facility.name: NSLS-II
# Facility.energy: 3.0
# Facility.current: 399.9
# Facility.mode: top-off
# Facility.GUP: 123456
# Facility.SAF: 301027
# Facility.cycle: 2023-2
# Mono.name: Si(111)
# Mono.d_spacing: 3.13519
# Mono.encoder_resolution: 0.0000050 deg/ct
# Mono.angle_offset: 16.0754 deg
# Mono.scan_mode: pseudo channel cut
# Mono.scan_type: step
# Mono.direction: forward in energy
# Sample.name: (Ca,Na)(Mg,Fe,Ti,Al)(Si,Al)2O6
# Sample.prep: PEG pellet
# Sample.x: 142.329 mm
# Sample.y: 114.126 mm
# Sample.SDD_position: 205.000 mm
# Scan.experimenters: Bruce Ravel
# Scan.edge_energy: 7112.0
# Scan.start_time: 2023-05-05T20:10:48
# Scan.end_time: 2023-05-05T20:19:04
# Scan.transient_id: 74611
# Scan.uid: 7f35bf42-07aa-467f-a489-86cedb7ed7b8
# Scan.plot_hint: ln(I0/It)  --  ln($5/$6)
# Column.1: energy eV
# Column.2: requested_energy eV
# Column.3: measurement_time seconds
# Column.4: xmu
# Column.5: I0 nA
# Column.6: It nA
# Column.7: Ir nA
# ///////////
# courtesy Martin Stennett, University of Sheffield
# -----------
# energy  requested_energy  measurement_time  xmu  I0  It  Ir
  6912.001  6912.000  0.500  1.874472  154.314  23.6773  4.443317
  6942.031  6942.000  0.500  1.843245  154.073  24.3903  4.675309
  6972.012  6972.000  0.500  1.812687  154.006  25.1361  4.918994
  7002.013  7002.000  0.500  1.782404  153.828  25.879  5.168959
  7032.010  7032.000  0.500  1.752797  153.672  26.6295  5.423704
  7062.002  7062.000  0.500  1.723884  152.75  27.2464  5.648581
  7083.978  7084.000  0.500  1.703224  153.048  27.8693  5.828006
  7089.988  7090.000  0.500  1.697796  153.161  28.0417  5.866152
  7096.216  7096.000  0.500  1.692418  153.076  28.1773  5.881716
  7101.999  7102.000  0.500  1.687322  153.014  28.3097  5.858416
  7102.884  7102.900  0.500  1.686464  152.992  28.3299  5.849165
  7103.787  7103.800  0.500  1.685725  152.965  28.346  5.833680
  7104.683  7104.700  0.500  1.685317  153.205  28.4021  5.820652
  7105.582  7105.600  0.500  1.684850  153.204  28.4152  5.793507
  7106.492  7106.500  0.500  1.683789  153.197  28.444  5.758886
  7107.387  7107.400  0.500  1.683401  153.198  28.4552  5.706712
  7108.287  7108.300  0.500  1.682946  153.161  28.4613  5.622371
  7109.191  7109.200  0.500  1.682302  153.161  28.4796  5.486826
  7110.095  7110.100  0.500  1.682194  153.135  28.4779  5.189845
  7110.995  7111.000  0.500  1.682795  153.048  28.4446  4.402839
  7111.889  7111.900  0.500  1.683963  152.979  28.3986  3.189334
  7112.794  7112.800  0.500  1.686425  152.931  28.3198  2.477598
  7113.697  7113.700  0.500  1.689406  152.866  28.2235  2.105402
  7114.598  7114.600  0.500  1.689201  152.837  28.2239  1.851265
  7115.500  7115.500  0.500  1.686077  152.811  28.3075  1.731764
  7116.393  7116.400  0.500  1.685405  152.792  28.3229  1.679342
  7117.297  7117.300  0.500  1.689044  152.747  28.2118  1.566617
  7118.199  7118.200  0.500  1.696425  152.705  27.9967  1.316708
  7119.097  7119.100  0.500  1.710066  152.69  27.6145  1.031181
  7120.000  7120.000  0.500  1.733568  152.641  26.9645  0.789562
  7120.896  7120.900  0.500  1.761020  152.604  26.2279  0.590567
  7121.799  7121.800  0.500  1.787053  152.567  25.5479  0.457542
  7122.702  7122.700  0.500  1.817313  152.524  24.7794  0.372083
  7123.600  7123.600  0.500  1.855827  152.491  23.8379  0.311986
  7124.499  7124.500  0.500  1.893207  152.451  22.9573  0.269319
  7125.399  7125.400  0.500  1.929689  152.392  22.1263  0.235522
  7126.301  7126.300  0.500  1.955097  152.329  21.5623  0.209348
  7127.203  7127.200  0.500  1.976902  152.26  21.0877  0.184226
  7128.097  7128.100  0.500  2.004969  152.184  20.4938  0.157625
  7128.998  7129.000  0.500  2.030410  152.122  19.9708  0.132565
  7129.903  7129.900  0.500  2.047228  152.024  19.6251  0.112433
  7130.802  7130.800  0.500  2.052628  151.96  19.5113  0.102367
  7131.708  7131.700  0.500  2.052625  151.885  19.5017  0.103579
  7132.594  7132.600  0.500  2.052635  151.852  19.4972  0.114142
  7133.496  7133.500  0.500  2.043825  151.844  19.6687  0.131187
  7134.400  7134.400  0.500  2.025881  151.798  20.0188  0.149856
  7135.303  7135.300  0.500  2.008952  151.798  20.3605  0.165152
  7136.199  7136.200  0.500  1.995303  151.739  20.6323  0.175030
  7136.998  7137.000  0.500  1.985917  151.768  20.8309  0.178655
  7140.019  7140.010  0.500  1.961410  151.728  21.3421  0.163939
  7143.188  7143.200  0.500  1.947963  151.695  21.6263  0.161839
  7146.552  7146.560  0.500  1.932992  151.648  21.9457  0.160320
  7150.080  7150.080  0.500  1.904415  151.649  22.5821  0.137575
  7153.786  7153.780  0.500  1.878925  151.59  23.156  0.132809
  7157.654  7157.650  0.500  1.868048  151.53  23.4  0.139968
  7161.703  7161.700  0.500  1.869530  151.45  23.3529  0.142038
  7165.911  7165.910  0.500  1.883735  151.33  23.0053  0.147746
  7170.283  7170.290  0.500  1.896051  151.882  22.8067  0.152572
  7174.856  7174.850  0.500  1.903274  151.778  22.627  0.171334
  7179.581  7179.580  0.500  1.904599  151.689  22.5838  0.197558
  7184.487  7184.480  0.500  1.900454  151.605  22.6651  0.194329
  7189.555  7189.550  0.500  1.892589  151.536  22.8336  0.169148
  7194.796  7194.790  0.500  1.882405  151.326  23.0354  0.148769
  7200.226  7200.210  0.500  1.873088  151.204  23.2323  0.171911
  7205.799  7205.790  0.500  1.862249  151.113  23.4713  0.217450
  7211.566  7211.550  0.500  1.853916  150.939  23.6405  0.197625
  7217.487  7217.480  0.500  1.847061  150.767  23.7759  0.120645
  7223.595  7223.580  0.500  1.841398  150.587  23.8825  0.114745
  7229.860  7229.850  0.500  1.834651  150.65  24.0542  0.174532
  7236.308  7236.290  0.500  1.828953  150.479  24.1641  0.245683
  7242.917  7242.900  0.500  1.824824  150.357  24.2444  0.244881
  7249.696  7249.690  0.500  1.822754  150.089  24.2515  0.217779
  7256.664  7256.650  0.500  1.818026  150.097  24.3677  0.232727
  7263.784  7263.770  0.500  1.809660  138.828  22.7275  0.203286
  7271.085  7271.070  0.500  1.802879  150.179  24.7531  0.200786
  7278.559  7278.550  0.500  1.794893  150.158  24.9481  0.182394
  7286.200  7286.190  0.500  1.786888  149.745  25.0794  0.165238
  7294.014  7294.000  0.500  1.777488  149.752  25.3174  0.185093
  7302.006  7301.990  0.500  1.768204  147.85  25.229  0.240380
  7310.159  7310.150  0.500  1.759778  149.555  25.7358  0.271449
  7318.481  7318.470  0.500  1.752804  149.377  25.8851  0.274280
  7326.985  7326.970  0.500  1.745677  149.186  26.037  0.278333
  7335.663  7335.650  0.500  1.737242  148.955  26.2169  0.293756
  7344.500  7344.490  0.500  1.728645  148.739  26.4049  0.285892
  7353.512  7353.500  0.500  1.720372  148.579  26.5956  0.245943
  7362.700  7362.690  0.500  1.711036  148.323  26.7988  0.222444
  7372.063  7372.050  0.500  1.702522  148.104  26.988  0.233720
  7381.586  7381.570  0.500  1.694083  147.876  27.1748  0.309154
  7391.282  7391.270  0.500  1.685147  147.667  27.38  0.342517
  7401.162  7401.150  0.500  1.675683  147.397  27.5899  0.334586
  7411.198  7411.190  0.500  1.665795  147.165  27.8201  0.337654
  7421.404  7421.400  0.500  1.656211  146.872  28.0322  0.345321
  7431.802  7431.790  0.500  1.647009  146.573  28.2337  0.360795
  7442.361  7442.350  0.500  1.637656  146.212  28.4288  0.346395
  7453.086  7453.080  0.500  1.628325  144.868  28.4316  0.326394
  7463.992  7463.980  0.500  1.618787  145.689  28.8667  0.339337
  7475.063  7475.050  0.500  1.608998  145.534  29.1195  0.374915
  7486.303  7486.290  0.500  1.599434  145.139  29.3196  0.405779
  7497.727  7497.710  0.500  1.588899  144.795  29.56  0.431951
  7509.321  7509.290  0.500  1.578959  144.417  29.7773  0.430345
  7521.071  7521.050  0.500  1.569071  144.045  29.9958  0.441493
  7532.999  7532.980  0.500  1.559089  143.634  30.2102  0.444922
  7545.102  7545.080  0.500  1.548863  143.219  30.4325  0.456672
  7557.380  7557.350  0.500  1.538684  142.797  30.6532  0.458597
  7569.818  7569.790  0.500  1.528053  142.933  31.0103  0.463177
  7582.410  7582.410  0.500  1.517759  142.498  31.2359  0.496855
  7595.212  7595.190  0.500  1.507044  141.884  31.4365  0.518682
  7608.157  7608.150  0.500  1.496527  140.86  31.5395  0.529677
  7621.302  7621.280  0.500  1.486043  140.709  31.8376  0.547827
  7634.558  7634.580  0.500  1.475462  140.485  32.1252  0.560777
  7648.067  7648.050  0.500  1.464616  139.955  32.353  0.586428
  7661.683  7661.700  0.500  1.453709  139.428  32.5845  0.600431
  7675.528  7675.510  0.500  1.442817  138.898  32.8163  0.604506
  7689.488  7689.500  0.500  1.431873  138.553  33.095  0.617107
  7703.657  7703.660  0.500  1.421082  137.759  33.2622  0.639350
  7717.967  7717.990  0.500  1.410189  137.199  33.4899  0.664638
  7732.513  7732.490  0.500  1.399183  136.621  33.7179  0.685081
  7747.145  7747.160  0.500  1.388195  136.116  33.9644  0.704017
  7761.987  7762.000  0.500  1.376826  135.46  34.1871  0.723903
  7777.003  7777.020  0.500  1.365999  134.834  34.3996  0.749285
  7792.224  7792.200  0.500  1.354536  134.246  34.6445  0.771078
  7807.540  7807.560  0.500  1.343303  133.622  34.8729  0.788155
  7823.099  7823.090  0.500  1.332381  132.966  35.0829  0.806410
  7838.786  7838.790  0.500  1.320790  132.04  35.2446  0.825385
  7854.648  7854.660  0.500  1.309722  130.772  35.2948  0.844687
  7870.688  7870.710  0.500  1.297842  130.97  35.7706  0.878045
  7886.899  7886.920  0.500  1.286636  130.272  35.9808  0.905876
  7903.289  7903.310  0.500  1.275238  129.555  36.1931  0.932751
  7919.854  7919.870  0.500  1.263658  128.778  36.3951  0.958682
  7936.583  7936.600  0.500  1.252346  127.815  36.5337  0.982089
  7953.482  7953.500  0.500  1.240659  127.136  36.767  1.005661
  7964.843  7964.860  0.500  1.233073  126.58  36.8847  1.022612