Folder: webxdiviewer/xdidata/Fe (part 11)

File: Fe-K-Wolframite.xdi
# XDI/1.0 BlueSky/1.5.3
# Beamline.name: 6BM
# Beamline.xray_source: NSLS-II three-pole wiggler
# Beamline.collimation: paraboloid mirror, 5 nm Rh on 30 nm Pt
# Beamline.focusing: not in use
# Beamline.harmonic_rejection: flat mirror, Si stripe, pitch = 7.0 mrad relative to beam
# Detector.i0: 10 cm N2
# Detector.i1: 25 cm N2
# Detector.i2: 25 cm N2
# Element.symbol: Fe
# Element.edge: K
# Facility.name: NSLS-II
# Facility.energy: 3.0
# Facility.current: 400.6
# Facility.mode: top-off
# Facility.gup: 301027
# Facility.saf: 304793
# Facility.cycle: 2020-1
# Mono.name: Si(111)
# Mono.d_spacing: 3.13532
# Mono.encoder_resolution: 0.0000050 deg/ct
# Mono.angle_offset: 16.0581 deg
# Mono.scan_mode: fixed exit
# Mono.scan_type: step
# Mono.direction: forward in energy
# Sample.name: (Fe,Mn)WO4
# Sample.prep: Powder in polyethylene glycol pellet
# Sample.x_position: -122.297 mm
# Sample.y_position: 119.848 mm
# Scan.experimenters: Bruce Ravel
# Scan.edge_energy: 7112.0
# Scan.start_time: 2020-01-15T02:08:51
# Scan.end_time: 2020-01-15T02:46:40
# Scan.transient_id: 19557
# Scan.uid: f04b10b0-adb0-4a2a-bd11-126c308991a8
# Scan.plot_hint: ln(I0/It)  --  ln($5/$6)
# Scan.sequence: merge of 2 scans
# Column.1: energy eV
# Column.2: requested_energy eV
# Column.3: measurement_time seconds
# Column.4: mutrans
# Column.5: i0
# Column.6: itrans
# Column.7: irefer
# /////
#  Cumberland, Black â€“ ID
# -----
# energy   requested_energy   measurement_time   mutrans   i0   itrans   irefer
6912 6912 0.500000 2.618186 71.7753 5.234967 1.441372
6952.02 6952 0.500000 2.576045 71.1157 5.410098 1.519324
6992.01 6992 0.500000 2.533807 70.4746 5.592595 1.596003
7032.01 7032 0.500000 2.492617 69.8249 5.774049 1.674782
7072.01 7072 0.500000 2.451591 69.1622 5.958771 1.749700
7088 7088 0.500000 2.436350 68.923 6.029355 1.770004
7096.01 7096 0.500000 2.428605 68.794 6.064869 1.773462
7102.08 7102.1 0.500000 2.423208 68.6824 6.087786 1.760572
7102.48 7102.5 0.500000 2.422851 68.6458 6.086780 1.758037
7102.89 7102.9 0.500000 2.422409 68.5897 6.084472 1.755386
7103.29 7103.3 0.500000 2.422145 68.5676 6.084076 1.752084
7103.69 7103.7 0.500000 2.421714 68.5438 6.084580 1.749596
7104.09 7104.1 0.500000 2.421292 68.5125 6.084397 1.746538
7104.49 7104.5 0.500000 2.421016 68.5236 6.087007 1.742579
7104.9 7104.9 0.500000 2.420677 68.489 6.086050 1.738396
7105.3 7105.3 0.500000 2.420503 68.4715 6.085545 1.734805
7105.69 7105.7 0.500000 2.420107 68.4491 6.085937 1.729968
7106.09 7106.1 0.500000 2.419977 68.4256 6.084616 1.724404
7106.49 7106.5 0.500000 2.419377 68.4707 6.092340 1.719173
7106.89 7106.9 0.500000 2.419290 68.4142 6.087773 1.710481
7107.29 7107.3 0.500000 2.418884 68.4688 6.095125 1.703036
7107.7 7107.7 0.500000 2.418709 68.4487 6.094474 1.692187
7108.1 7108.1 0.500000 2.418578 68.4642 6.096627 1.679650
7108.5 7108.5 0.500000 2.418330 68.4191 6.094217 1.662413
7108.9 7108.9 0.500000 2.418092 68.4007 6.093920 1.640229
7109.3 7109.3 0.500000 2.418085 68.3882 6.092845 1.609877
7109.7 7109.7 0.500000 2.417917 68.3473 6.090234 1.568333
7110.1 7110.1 0.500000 2.417785 68.4796 6.102825 1.505676
7110.5 7110.5 0.500000 2.418103 68.5171 6.104220 1.399624
7110.9 7110.9 0.500000 2.418614 68.5165 6.101032 1.243388
7111.3 7111.3 0.500000 2.419203 68.4211 6.088948 1.069113
7111.7 7111.7 0.500000 2.420108 68.3855 6.080287 0.926304
7112.1 7112.1 0.500000 2.419894 68.3465 6.078126 0.823735
7112.5 7112.5 0.500000 2.419959 68.3172 6.075135 0.753651
7112.89 7112.9 0.500000 2.420274 68.2647 6.068559 0.698554
7113.3 7113.3 0.500000 2.420335 68.1937 6.061852 0.651776
7113.7 7113.7 0.500000 2.421068 68.1866 6.056782 0.613303
7114.1 7114.1 0.500000 2.422031 68.1277 6.045735 0.579554
7114.5 7114.5 0.500000 2.423738 68.0882 6.031918 0.552705
7114.9 7114.9 0.500000 2.426432 68.0958 6.016317 0.533816
7115.3 7115.3 0.500000 2.429917 68.0803 5.993990 0.519766
7115.7 7115.7 0.500000 2.432448 68.0792 5.978848 0.512856
7116.1 7116.1 0.500000 2.433921 68.0622 5.968533 0.505398
7116.5 7116.5 0.500000 2.434161 68.025 5.963840 0.495426
7116.9 7116.9 0.500000 2.433472 67.9895 5.964852 0.478179
7117.3 7117.3 0.500000 2.433048 67.9253 5.961717 0.452681
7117.7 7117.7 0.500000 2.433851 67.9083 5.955394 0.418777
7118.1 7118.1 0.500000 2.436320 67.8814 5.938413 0.382577
7118.5 7118.5 0.500000 2.441222 67.8246 5.904524 0.345155
7118.9 7118.9 0.500000 2.448384 67.7731 5.857845 0.308669
7119.3 7119.3 0.500000 2.456656 67.718 5.804863 0.274565
7119.7 7119.7 0.500000 2.464290 67.6485 5.754549 0.243272
7120.1 7120.1 0.500000 2.471836 67.5645 5.704456 0.216575
7120.5 7120.5 0.500000 2.479998 67.5028 5.652912 0.191386
7120.9 7120.9 0.500000 2.490241 67.6038 5.603511 0.170448
7121.3 7121.3 0.500000 2.503042 67.5088 5.524021 0.152959
7121.7 7121.7 0.500000 2.518839 67.4317 5.431598 0.136338
7122.1 7122.1 0.500000 2.536999 67.2921 5.323772 0.123901
7122.5 7122.5 0.500000 2.556243 67.184 5.213729 0.114302
7122.9 7122.9 0.500000 2.575849 67.1619 5.110522 0.105386
7123.3 7123.3 0.500000 2.593350 67.0172 5.011024 0.097533
7123.7 7123.7 0.500000 2.607015 66.8795 4.932122 0.091453
7124.1 7124.1 0.500000 2.617484 66.7295 4.869952 0.086058
7124.5 7124.5 0.500000 2.626638 66.6186 4.817833 0.081706
7124.9 7124.9 0.500000 2.635423 66.4836 4.765734 0.078140
7125.3 7125.3 0.500000 2.644239 66.3813 4.717725 0.073495
7125.7 7125.7 0.500000 2.651481 66.2437 4.673543 0.069934
7126.1 7126.1 0.500000 2.656949 66.0959 4.637651 0.067521
7126.5 7126.5 0.500000 2.659733 65.9548 4.614742 0.063783
7126.9 7126.9 0.500000 2.660684 65.8092 4.600094 0.061661
7127.3 7127.3 0.500000 2.661201 65.6367 4.585759 0.057721
7127.7 7127.7 0.500000 2.661188 65.476 4.574482 0.053982
7128.1 7128.1 0.500000 2.660900 65.3544 4.567305 0.050887
7128.49 7128.5 0.500000 2.660923 65.2329 4.558703 0.048138
7128.9 7128.9 0.500000 2.660391 65.1103 4.552576 0.044468
7129.3 7129.3 0.500000 2.658602 65.0177 4.554239 0.042000
7129.7 7129.7 0.500000 2.655925 64.8964 4.557937 0.039800
7130.1 7130.1 0.500000 2.652887 64.7264 4.559890 0.037860
7130.51 7130.5 0.500000 2.649271 64.5721 4.565601 0.037317
7130.91 7130.9 0.500000 2.646031 64.4305 4.570244 0.036842
7131.3 7131.3 0.500000 2.642972 64.2836 4.573759 0.037207
7131.71 7131.7 0.500000 2.640176 64.1941 4.580222 0.038305
7132.09 7132.1 0.500000 2.638127 64.1697 4.587660 0.039422
7132.52 7132.5 0.500000 2.636057 64.1584 4.596635 0.042605
7132.91 7132.9 0.500000 2.634358 64.1697 4.605316 0.045467
7133.31 7133.3 0.500000 2.632456 64.2058 4.616605 0.047653
7133.7 7133.7 0.500000 2.629936 64.3972 4.642089 0.050298
7134.1 7134.1 0.500000 2.627223 64.443 4.657873 0.052694
7134.5 7134.5 0.500000 2.624351 64.5051 4.675766 0.055148
7134.9 7134.9 0.500000 2.621451 64.5701 4.694071 0.057169
7135.3 7135.3 0.500000 2.618430 64.6227 4.711909 0.058858
7135.7 7135.7 0.500000 2.615431 64.8365 4.741864 0.060220
7136.1 7136.1 0.500000 2.611994 64.912 4.763816 0.061050
7136.5 7136.5 0.500000 2.608172 64.9748 4.786713 0.061263
7136.9 7136.9 0.500000 2.604027 64.9954 4.808042 0.062023
7137.3 7137.3 0.500000 2.600095 65.0823 4.833480 0.061923
7137.7 7137.7 0.500000 2.596349 65.0936 4.852504 0.061508
7138.1 7138.1 0.500000 2.592684 65.1259 4.872670 0.061655
7138.5 7138.5 0.500000 2.589747 65.1457 4.888514 0.060481
7138.9 7138.9 0.500000 2.587206 65.16 4.901986 0.058341
[...]
7140.11 7140.1 0.500000 2.581037 65.1908 4.934666 0.056543
7140.5 7140.5 0.500000 2.579651 65.205 4.942568 0.055715
7140.9 7140.9 0.500000 2.578654 65.2474 4.950717 0.056150
7141.3 7141.3 0.500000 2.577827 65.2558 4.955456 0.055249
7141.69 7141.7 0.500000 2.577239 65.2354 4.956820 0.055325
7143.09 7143.08 0.710000 2.573040 92.6932 7.072778 0.080747
7147.59 7147.58 0.760000 2.548820 99.4222 7.772425 0.079312
7152.4 7152.39 0.810000 2.534693 106.188 8.419195 0.075414
7157.52 7157.51 0.860000 2.537154 112.954 8.933652 0.082036
7162.94 7162.93 0.910000 2.546287 119.278 9.348084 0.087560
7168.66 7168.65 0.960000 2.553775 125.459 9.759147 0.098350
7174.69 7174.68 1.010000 2.553533 131.628 10.2414 0.116822
7181.02 7181.01 1.060000 2.542972 138.031 10.8537 0.142022
7187.66 7187.65 1.110000 2.537263 144.389 11.4186 0.133157
7194.62 7194.6 1.160000 2.527157 151.074 12.0686 0.116991
7201.85 7201.84 1.210000 2.513669 157.608 12.7616 0.150989
7209.41 7209.4 1.260000 2.502598 164.021 13.4288 0.182988
7217.27 7217.26 1.310000 2.494839 170.2 14.0432 0.107657
7225.44 7225.42 1.360000 2.488510 175.937 14.6088 0.120000
7233.91 7233.89 1.410000 2.483442 182.386 15.2212 0.211163
7242.66 7242.66 1.460000 2.476336 188.403 15.8353 0.232815
7251.74 7251.74 1.510000 2.469793 194.334 16.4412 0.218764
7261.11 7261.12 1.560000 2.459811 199.849 17.0772 0.229741
7270.8 7270.8 1.610000 2.448821 207.332 17.9126 0.212239
7280.79 7280.79 1.660000 2.438976 212.911 18.5764 0.193272
7291.09 7291.09 1.710000 2.426064 219.273 19.3803 0.191920
7301.69 7301.69 1.760000 2.416336 221.555 19.7733 0.272365
7312.6 7312.6 1.810000 2.406629 231.187 20.8343 0.314388
7323.81 7323.81 1.860000 2.395760 236.989 21.5905 0.327468
7335.32 7335.32 1.910000 2.384832 243.046 22.3856 0.356921
7347.14 7347.14 1.960000 2.374499 248.751 23.1491 0.338619
7359.27 7359.27 2.010000 2.362814 254.585 23.9704 0.293152
7371.7 7371.7 2.060000 2.350796 260.243 24.7995 0.305674
7384.43 7384.43 2.110000 2.339075 265.435 25.5924 0.439518
7397.46 7397.47 2.160000 2.326498 270.993 26.459 0.451059
7410.81 7410.82 2.210000 2.314009 275.921 27.2787 0.463039
7424.48 7424.47 2.260000 2.301612 280.719 28.0992 0.492188
7438.42 7438.42 2.310000 2.289135 285.543 28.941 0.504807
7452.69 7452.68 2.360000 2.276542 290.319 29.798 0.474307
7467.25 7467.24 2.410000 2.263987 289.882 30.129 0.503324
7482.11 7482.11 2.460000 2.250519 300.994 31.7081 0.586803
7497.28 7497.28 2.510000 2.237161 306.628 32.736 0.654629
7512.76 7512.76 2.560000 2.223626 311.885 33.751 0.667341
7528.55 7528.54 2.610000 2.209973 317.05 34.7816 0.698724
7544.63 7544.63 2.660000 2.195872 321.76 35.7996 0.730241
7561.03 7561.02 2.710000 2.181408 326.256 36.8287 0.741415
7577.73 7577.72 2.760000 2.167715 330.855 37.8626 0.792244
7594.73 7594.72 2.810000 2.153850 334.107 38.7687 0.859373
7612.03 7612.03 2.860000 2.139944 336.041 39.5391 0.899259
7629.65 7629.64 2.910000 2.125519 340.816 40.6837 0.937207
7647.57 7647.56 2.960000 2.111183 343.604 41.6086 1.000765
7665.79 7665.78 3.010000 2.096681 346.972 42.6302 1.038617
7684.31 7684.3 3.060000 2.082372 349.478 43.557 1.061373
7703.13 7703.13 3.110000 2.067964 352.952 44.6283 1.125747
7722.28 7722.27 3.160000 2.052960 355.028 45.5694 1.191393
7741.71 7741.71 3.210000 2.038005 357.515 46.58 1.246807
7761.45 7761.45 3.260000 2.023217 357.918 47.3273 1.294985
7781.5 7781.5 3.310000 2.008156 358.864 48.1724 1.362176
7801.86 7801.86 3.360000 1.992663 359.421 49.0006 1.415894
7822.52 7822.52 3.410000 1.977522 359.384 49.7431 1.458421
7843.48 7843.48 3.460000 1.962064 359.011 50.4655 1.510206
7854.08 7854.08 3.490000 1.954190 357.671 50.6745 1.535651

File: Fe-Lepidocrocite.xdi
# XDI/1.0 BlueSky/1.10.0 BMM/2023-1.0-py310-tiled
# Beamline.name: BMM (06BM) -- Beamline for Materials Measurement (NIST)
# Beamline.xray_source: NSLS-II three-pole wiggler
# Beamline.collimation: paraboloid mirror, 5 nm Rh on 30 nm Pt
# Beamline.focusing: not in use
# Beamline.harmonic_rejection: flat mirror, Si stripe, pitch = 7.0 mrad relative to beam
# Beamline.software: Bluesky 1.10.0, Ophyd 1.7.0, DataBroker 2.0.0b13, Python 3.10.8, 2023-1.0-py310-tiled
# Detector.I0: 10 cm N2
# Detector.I1: 25 cm N2
# Detector.I2: 25 cm N2
# Element.symbol: Fe
# Element.edge: K
# Element.reference: Fe
# Element.reference_material: Fe foil
# Facility.name: NSLS-II
# Facility.energy: 3.0
# Facility.current: 400.0
# Facility.mode: top-off
# Facility.GUP: 123456
# Facility.SAF: 301027
# Facility.cycle: 2023-2
# Mono.name: Si(111)
# Mono.d_spacing: 3.13519
# Mono.encoder_resolution: 0.0000050 deg/ct
# Mono.angle_offset: 16.0754 deg
# Mono.scan_mode: pseudo channel cut
# Mono.scan_type: step
# Mono.direction: forward in energy
# Sample.name: gamma-FeOOH
# Sample.prep: powder on tape
# Sample.x: 116.329 mm
# Sample.y: 114.126 mm
# Sample.SDD_position: 205.000 mm
# Scan.experimenters: Bruce Ravel
# Scan.edge_energy: 7112.0
# Scan.start_time: 2023-05-05T17:04:08
# Scan.end_time: 2023-05-05T17:12:16
# Scan.transient_id: 74506
# Scan.uid: a42ce525-1b10-4fb5-9dc1-11dc8e8f5189
# Scan.plot_hint: ln(I0/It)  --  ln($5/$6)
# Column.1: energy eV
# Column.2: requested_energy eV
# Column.3: measurement_time seconds
# Column.4: xmu
# Column.5: I0 nA
# Column.6: It nA
# Column.7: Ir nA
# ///////////
# Welcome to BMM
# -----------
# energy  requested_energy  measurement_time  xmu  I0  It  Ir
  6911.997  6912.000  0.500  1.659787  153.862  29.2614  5.491544
  6942.031  6942.000  0.500  1.630425  153.749  30.1112  5.771361
  6972.006  6972.000  0.500  1.601054  153.791  31.0171  6.070640
  7002.013  7002.000  0.500  1.572293  153.812  31.9266  6.376202
  7032.012  7032.000  0.500  1.544346  153.94  32.8588  6.691699
  7062.008  7062.000  0.500  1.516307  153.01  33.5889  6.962148
  7083.978  7084.000  0.500  1.496901  153.437  34.3427  7.181750
  7089.979  7090.000  0.500  1.491790  153.552  34.5446  7.227242
  7095.965  7096.000  0.500  1.486412  153.526  34.7249  7.248867
  7101.997  7102.000  0.500  1.481890  153.423  34.8588  7.213953
  7102.884  7102.900  0.500  1.480837  153.388  34.8877  7.201230
  7103.783  7103.800  0.500  1.480374  153.36  34.8975  7.179081
  7104.681  7104.700  0.500  1.479500  153.347  34.9251  7.156487
  7105.587  7105.600  0.500  1.479075  153.315  34.9325  7.119272
  7106.490  7106.500  0.500  1.478507  153.289  34.9464  7.072771
  7107.387  7107.400  0.500  1.477667  153.266  34.9705  7.008546
  7108.284  7108.300  0.500  1.477060  153.243  34.9866  6.904543
  7109.191  7109.200  0.500  1.476634  153.22  34.9962  6.729766
  7110.097  7110.100  0.500  1.476227  153.179  35.0012  6.345638
  7110.993  7111.000  0.500  1.476161  153.098  34.9849  5.337494
  7111.891  7111.900  0.500  1.477331  152.982  34.9176  3.848494
  7112.790  7112.800  0.500  1.481376  152.937  34.7662  3.012485
  7113.693  7113.700  0.500  1.482307  152.863  34.7173  2.569595
  7114.603  7114.600  0.500  1.481923  152.81  34.7185  2.263292
  7115.498  7115.500  0.500  1.479804  152.834  34.7975  2.123742
  7116.393  7116.400  0.500  1.480438  152.779  34.7631  2.057101
  7117.299  7117.300  0.500  1.481669  152.745  34.7125  1.914583
  7118.201  7118.200  0.500  1.483209  152.707  34.6504  1.608921
  7119.104  7119.100  0.500  1.485248  152.664  34.5701  1.270047
  7120.000  7120.000  0.500  1.489629  152.641  34.4139  0.991335
  7120.894  7120.900  0.500  1.498930  152.6  34.086  0.754831
  7121.799  7121.800  0.500  1.515533  152.507  33.5044  0.592214
  7122.700  7122.700  0.500  1.542669  152.492  32.6043  0.484886
  7123.604  7123.600  0.500  1.574376  152.422  31.5722  0.410006
  7124.503  7124.500  0.500  1.602848  152.375  30.6765  0.357428
  7125.397  7125.400  0.500  1.636697  152.32  29.6448  0.313811
  7126.299  7126.300  0.500  1.680010  152.275  28.3799  0.273771
  7127.201  7127.200  0.500  1.736866  152.178  26.7941  0.232546
  7128.099  7128.100  0.500  1.802226  152.144  25.0934  0.191355
  7129.000  7129.000  0.500  1.857023  152.054  23.7413  0.155935
  7129.895  7129.900  0.500  1.889058  152.005  22.9854  0.130903
  7130.802  7130.800  0.500  1.905340  151.89  22.5969  0.118364
  7131.706  7131.700  0.500  1.911481  151.803  22.4458  0.119907
  7132.603  7132.600  0.500  1.903085  151.803  22.6351  0.133818
  7133.496  7133.500  0.500  1.885291  151.782  23.0382  0.155043
  7134.398  7134.400  0.500  1.868268  151.758  23.43  0.176834
  7135.303  7135.300  0.500  1.856499  151.754  23.7068  0.193363
  7136.203  7136.200  0.500  1.847332  152.126  23.9838  0.203802
  7137.002  7137.000  0.500  1.839817  152.137  24.1664  0.207488
  7140.026  7140.010  0.500  1.803386  152.112  25.0589  0.191975
  7143.218  7143.200  0.500  1.770486  152.118  25.8981  0.194027
  7146.585  7146.560  0.500  1.753603  152.111  26.3378  0.191611
  7150.070  7150.080  0.500  1.724345  152.077  27.1137  0.164808
  7153.775  7153.780  0.500  1.685726  152.045  28.1754  0.161459
  7157.652  7157.650  0.500  1.666772  151.961  28.6988  0.171576
  7161.709  7161.700  0.500  1.660718  151.92  28.8652  0.175658
  7165.915  7165.910  0.500  1.667331  151.807  28.6537  0.183976
  7170.294  7170.290  0.500  1.688904  151.715  28.0252  0.187760
  7174.851  7174.850  0.500  1.717204  151.601  27.2226  0.207122
  7179.585  7179.580  0.500  1.728408  151.548  26.9099  0.235840
  7184.483  7184.480  0.500  1.723430  151.467  27.0297  0.231368
  7189.557  7189.550  0.500  1.709689  151.356  27.3836  0.202211
  7194.803  7194.790  0.500  1.695064  151.163  27.7516  0.179138
  7200.217  7200.210  0.500  1.685802  151.085  27.9954  0.207763
  7205.797  7205.790  0.500  1.677870  150.957  28.1944  0.262481
  7211.555  7211.550  0.500  1.670259  150.818  28.3837  0.235994
  7217.491  7217.480  0.500  1.663119  150.669  28.5589  0.144083
  7223.588  7223.580  0.500  1.655329  150.502  28.7502  0.138913
  7229.860  7229.850  0.500  1.643825  150.565  29.095  0.212658
  7236.308  7236.290  0.500  1.629699  150.404  29.4774  0.300634
  7242.910  7242.900  0.500  1.624748  150.299  29.6032  0.298658
  7249.701  7249.690  0.500  1.627873  150.075  29.4667  0.264466
  7256.666  7256.650  0.500  1.630072  150.054  29.3978  0.280740
  7263.789  7263.770  0.500  1.630404  136.033  26.642  0.237996
  7271.085  7271.070  0.500  1.627743  150.229  29.5008  0.239008
  7278.564  7278.550  0.500  1.618273  150.223  29.7803  0.217362
  7286.205  7286.190  0.500  1.601043  149.815  30.2156  0.198859
  7294.012  7294.000  0.500  1.585217  149.852  30.7052  0.225496
  7302.006  7301.990  0.500  1.575142  148.32  30.699  0.293228
  7310.166  7310.150  0.500  1.571290  149.676  31.0991  0.328367
  7318.483  7318.470  0.500  1.569260  149.484  31.1224  0.329634
  7326.981  7326.970  0.500  1.561861  149.332  31.3217  0.335038
  7335.665  7335.650  0.500  1.552379  149.149  31.5813  0.354041
  7344.504  7344.490  0.500  1.541169  148.922  31.8888  0.345251
  7353.510  7353.500  0.500  1.532491  148.782  32.1366  0.296767
  7362.703  7362.690  0.500  1.525762  148.503  32.2928  0.267992
  7372.058  7372.050  0.500  1.516454  148.354  32.5621  0.282255
  7381.581  7381.570  0.500  1.509942  148.115  32.7219  0.372764
  7391.277  7391.270  0.500  1.504091  147.945  32.8763  0.411750
  7401.157  7401.150  0.500  1.495213  147.682  33.1104  0.401429
  7411.198  7411.190  0.500  1.484415  147.422  33.4109  0.405366
  7421.408  7421.400  0.500  1.472478  147.163  33.7527  0.416015
  7431.798  7431.790  0.500  1.461524  146.941  34.073  0.435743
  7442.359  7442.350  0.500  1.452097  147.131  34.4402  0.419578
  7453.088  7453.080  0.500  1.443077  145.656  34.4039  0.395158
  7463.985  7463.980  0.500  1.435780  146.674  34.8982  0.410368
  7475.055  7475.050  0.500  1.428802  146.471  35.0937  0.452135
  7486.305  7486.290  0.500  1.419298  146.116  35.3431  0.489388
  7497.724  7497.710  0.500  1.408405  145.799  35.6527  0.521067
  7509.309  7509.290  0.500  1.398023  145.419  35.9309  0.519234
  7521.061  7521.050  0.500  1.387439  145.04  36.2185  0.533596
  7532.999  7532.980  0.500  1.377589  144.64  36.4761  0.537610
  7545.098  7545.080  0.500  1.368800  144.22  36.6914  0.550833
  7557.368  7557.350  0.500  1.359303  143.828  36.9408  0.552935
  7569.792  7569.790  0.500  1.349720  143.355  37.1739  0.555059
  7582.424  7582.410  0.500  1.338847  142.904  37.4619  0.596395
  7595.212  7595.190  0.500  1.327895  142.334  37.7235  0.621945
  7608.172  7608.150  0.500  1.317419  141.293  37.8418  0.635675
  7621.294  7621.280  0.500  1.307499  141.123  38.1732  0.657036
  7634.596  7634.580  0.500  1.297535  140.868  38.4857  0.671693
  7648.072  7648.050  0.500  1.288197  140.382  38.7128  0.701846
  7661.713  7661.700  0.500  1.278593  139.823  38.9307  0.717064
  7675.526  7675.510  0.500  1.267763  139.281  39.202  0.722327
  7689.511  7689.500  0.500  1.256603  138.925  39.5407  0.737154
  7703.672  7703.660  0.500  1.245812  138.159  39.7494  0.763906
  7718.003  7717.990  0.500  1.235223  137.544  39.9937  0.793938
  7732.506  7732.490  0.500  1.224614  136.99  40.2575  0.818149
  7747.180  7747.160  0.500  1.214078  136.524  40.5454  0.840267
  7762.021  7762.000  0.500  1.203737  135.87  40.7707  0.863296
  7777.024  7777.020  0.500  1.193096  135.237  41.0147  0.893324
  7792.206  7792.200  0.500  1.182346  134.632  41.2726  0.918190
  7807.558  7807.560  0.500  1.171582  134.017  41.5287  0.938583
  7823.094  7823.090  0.500  1.160551  133.386  41.7918  0.960749
  7838.796  7838.790  0.500  1.149828  132.438  41.9419  0.982130
  7854.669  7854.660  0.500  1.138969  131.134  41.9824  1.004815
  7870.725  7870.710  0.500  1.128619  131.371  42.496  1.043286
  7886.931  7886.920  0.500  1.117496  130.714  42.7564  1.076581
  7903.329  7903.310  0.500  1.106632  129.953  42.9715  1.107137
  7919.884  7919.870  0.500  1.096042  129.23  43.1875  1.137364
  7936.623  7936.600  0.500  1.084944  128.271  43.3455  1.164861
  7953.525  7953.500  0.500  1.073748  127.63  43.6144  1.193008
  7964.840  7964.860  0.500  1.066765  127.037  43.7158  1.211474