Folder: webxdiviewer/xdidata/Fe (part 8)

File: Fe-Ilmenite.xdi
# XDI/1.0 BlueSky/1.10.0 BMM/2023-1.0-py310-tiled
# Beamline.name: BMM (06BM) -- Beamline for Materials Measurement (NIST)
# Beamline.xray_source: NSLS-II three-pole wiggler
# Beamline.collimation: paraboloid mirror, 5 nm Rh on 30 nm Pt
# Beamline.focusing: not in use
# Beamline.harmonic_rejection: flat mirror, Si stripe, pitch = 7.0 mrad relative to beam
# Beamline.software: Bluesky 1.10.0, Ophyd 1.7.0, DataBroker 2.0.0b13, Python 3.10.8, 2023-1.0-py310-tiled
# Detector.I0: 10 cm N2
# Detector.I1: 25 cm N2
# Detector.I2: 25 cm N2
# Element.symbol: Fe
# Element.edge: K
# Element.reference: Fe
# Element.reference_material: Fe foil
# Facility.name: NSLS-II
# Facility.energy: 3.0
# Facility.current: 399.2
# Facility.mode: top-off
# Facility.GUP: 123456
# Facility.SAF: 301027
# Facility.cycle: 2023-2
# Mono.name: Si(111)
# Mono.d_spacing: 3.13519
# Mono.encoder_resolution: 0.0000050 deg/ct
# Mono.angle_offset: 16.0754 deg
# Mono.scan_mode: pseudo channel cut
# Mono.scan_type: step
# Mono.direction: forward in energy
# Sample.name: FeTiO3
# Sample.prep: PEG pellet
# Sample.x: 116.329 mm
# Sample.y: 114.126 mm
# Sample.SDD_position: 205.000 mm
# Scan.experimenters: Bruce Ravel
# Scan.edge_energy: 7112.0
# Scan.start_time: 2023-05-05T17:39:21
# Scan.end_time: 2023-05-05T17:47:28
# Scan.transient_id: 74526
# Scan.uid: 2a0cec3e-a24d-4c20-99a1-97dcad027227
# Scan.plot_hint: ln(I0/It)  --  ln($5/$6)
# Column.1: energy eV
# Column.2: requested_energy eV
# Column.3: measurement_time seconds
# Column.4: xmu
# Column.5: I0 nA
# Column.6: It nA
# Column.7: Ir nA
# ///////////
# courtesy Martin Stennett, University of Sheffield
# -----------
# energy  requested_energy  measurement_time  xmu  I0  It  Ir
  6911.997  6912.000  0.500  2.598170  153.757  11.441  2.146097
  6942.013  6942.000  0.500  2.560030  153.544  11.8693  2.274253
  6972.016  6972.000  0.500  2.522135  153.495  12.3238  2.410979
  7002.013  7002.000  0.500  2.485206  153.389  12.7786  2.551217
  7032.008  7032.000  0.500  2.448768  153.189  13.2356  2.693911
  7062.008  7062.000  0.500  2.413225  152.82  13.6814  2.834646
  7083.978  7084.000  0.500  2.388820  153.124  14.0472  2.936717
  7089.988  7090.000  0.500  2.382313  153.216  14.1475  2.958661
  7096.133  7096.000  0.500  2.376455  153.158  14.2252  2.968404
  7101.995  7102.000  0.500  2.372180  153.072  14.2781  2.953832
  7102.887  7102.900  0.500  2.371450  153.05  14.2865  2.948097
  7103.783  7103.800  0.500  2.371015  153.054  14.2931  2.938933
  7104.686  7104.700  0.500  2.370988  153.003  14.2887  2.926989
  7105.584  7105.600  0.500  2.371011  153.006  14.2886  2.911442
  7106.492  7106.500  0.500  2.370967  152.976  14.2865  2.890590
  7107.383  7107.400  0.500  2.370665  152.924  14.2859  2.862812
  7108.287  7108.300  0.500  2.371202  152.926  14.2785  2.818478
  7109.188  7109.200  0.500  2.372114  152.882  14.2613  2.744805
  7110.093  7110.100  0.500  2.374777  152.85  14.2205  2.586546
  7110.995  7111.000  0.500  2.382501  152.774  14.104  2.170943
  7111.887  7111.900  0.500  2.393880  152.681  13.9359  1.554914
  7112.792  7112.800  0.500  2.394393  152.592  13.9207  1.212926
  7113.699  7113.700  0.500  2.399584  152.569  13.8465  1.029095
  7114.598  7114.600  0.500  2.415018  152.522  13.6302  0.891402
  7115.500  7115.500  0.500  2.451144  152.488  13.1437  0.803190
  7116.391  7116.400  0.500  2.474209  152.475  12.8429  0.760337
  7117.295  7117.300  0.500  2.488032  152.426  12.6626  0.701422
  7118.199  7118.200  0.500  2.525551  152.378  12.1924  0.570209
  7119.101  7119.100  0.500  2.557725  152.368  11.8056  0.438102
  7119.998  7120.000  0.500  2.619890  152.309  11.0897  0.323861
  7120.896  7120.900  0.500  2.752176  152.252  9.711982  0.218480
  7121.797  7121.800  0.500  2.936383  152.193  8.074944  0.144636
  7122.702  7122.700  0.500  3.089708  152.162  6.925696  0.103635
  7123.602  7123.600  0.500  3.154426  152.113  6.489575  0.084819
  7124.493  7124.500  0.500  3.200157  152.068  6.197661  0.072593
  7125.403  7125.400  0.500  3.232743  152.009  5.996635  0.063732
  7126.301  7126.300  0.500  3.253090  151.947  5.873433  0.056861
  7127.201  7127.200  0.500  3.272984  151.859  5.754407  0.050042
  7128.102  7128.100  0.500  3.286571  151.788  5.674124  0.043509
  7128.996  7129.000  0.500  3.275602  151.68  5.732608  0.037928
  7129.901  7129.900  0.500  3.243793  151.67  5.917503  0.033889
  7130.802  7130.800  0.500  3.226111  151.588  6.019793  0.031655
  7131.704  7131.700  0.500  3.221855  151.505  6.042180  0.032307
  7132.603  7132.600  0.500  3.200879  151.472  6.168893  0.036300
  7133.496  7133.500  0.500  3.158236  151.442  6.436397  0.043186
  7134.398  7134.400  0.500  3.110585  151.453  6.751005  0.050708
  7135.305  7135.300  0.500  3.067708  151.451  7.046661  0.057324
  7136.203  7136.200  0.500  3.034056  151.442  7.287419  0.061758
  7136.994  7137.000  0.500  3.014845  151.414  7.427387  0.063693
  7140.028  7140.010  0.500  2.948788  151.893  7.959695  0.060974
  7143.218  7143.200  0.500  2.939076  151.884  8.036861  0.060264
  7146.587  7146.560  0.500  2.939795  151.879  8.030857  0.058497
  7150.072  7150.080  0.500  2.932104  151.841  8.090810  0.049315
  7153.779  7153.780  0.500  2.926268  151.829  8.137557  0.046707
  7157.656  7157.650  0.500  2.919614  151.797  8.190158  0.049054
  7161.716  7161.700  0.500  2.946498  151.698  7.967689  0.048500
  7165.915  7165.910  0.500  2.974151  151.575  7.744078  0.049724
  7170.299  7170.290  0.500  3.014160  151.513  7.437330  0.049818
  7174.858  7174.850  0.500  3.032476  151.422  7.297959  0.055412
  7179.583  7179.580  0.500  3.011427  151.359  7.450126  0.065391
  7184.485  7184.480  0.500  2.981041  151.28  7.675920  0.065701
  7189.559  7189.550  0.500  2.962658  151.205  7.814468  0.057794
  7194.798  7194.790  0.500  2.942839  150.971  7.958592  0.051512
  7200.222  7200.210  0.500  2.911720  150.844  8.203198  0.060814
  7205.810  7205.790  0.500  2.896363  150.652  8.319578  0.077176
  7211.560  7211.550  0.500  2.897831  150.484  8.298067  0.069086
  7217.491  7217.480  0.500  2.911943  150.289  8.171190  0.041368
  7223.593  7223.580  0.500  2.910798  150.057  8.167938  0.039525
  7229.860  7229.850  0.500  2.903656  150.076  8.227550  0.059916
  7236.301  7236.290  0.500  2.904323  149.843  8.209288  0.083588
  7242.917  7242.900  0.500  2.890831  149.731  8.314575  0.083936
  7249.701  7249.690  0.500  2.879676  149.429  8.390886  0.075229
  7256.666  7256.650  0.500  2.873154  149.338  8.440650  0.080467
  7263.782  7263.770  0.500  2.862512  136.62  7.804421  0.069620
  7271.088  7271.070  0.500  2.855303  149.45  8.599141  0.069695
  7278.564  7278.550  0.500  2.847890  149.383  8.659197  0.063142
  7286.202  7286.190  0.500  2.832548  148.939  8.766951  0.057760
  7294.012  7294.000  0.500  2.824849  148.936  8.834537  0.064634
  7302.006  7301.990  0.500  2.810923  147.242  8.856504  0.084323
  7310.163  7310.150  0.500  2.788812  148.685  9.143257  0.096457
  7318.492  7318.470  0.500  2.777874  148.481  9.231172  0.097605
  7326.981  7326.970  0.500  2.781626  148.283  9.184328  0.098088
  7335.661  7335.650  0.500  2.780143  148.076  9.185113  0.102668
  7344.504  7344.490  0.500  2.768909  147.811  9.272276  0.100292
  7353.512  7353.500  0.500  2.754561  147.649  9.395961  0.086640
  7362.703  7362.690  0.500  2.737711  147.42  9.540756  0.078980
  7372.063  7372.050  0.500  2.721658  147.21  9.681323  0.083738
  7381.586  7381.570  0.500  2.707724  146.987  9.802367  0.111365
  7391.282  7391.270  0.500  2.697588  146.779  9.888171  0.123515
  7401.160  7401.150  0.500  2.693160  146.519  9.914499  0.119891
  7411.201  7411.190  0.500  2.682923  146.261  9.998852  0.121053
  7421.411  7421.400  0.500  2.668247  146.033  10.1308  0.124672
  7431.800  7431.790  0.500  2.652671  145.737  10.2691  0.131146
  7442.357  7442.350  0.500  2.639115  145.329  10.3801  0.126215
  7453.088  7453.080  0.500  2.628569  143.988  10.3933  0.119136
  7463.990  7463.980  0.500  2.617992  145.451  10.6105  0.124584
  7475.060  7475.050  0.500  2.606707  145.182  10.7111  0.137769
  7486.312  7486.290  0.500  2.594009  144.847  10.8229  0.149556
  7497.729  7497.710  0.500  2.580254  144.465  10.9439  0.159525
  7509.300  7509.290  0.500  2.566323  144.117  11.0707  0.159576
  7521.073  7521.050  0.500  2.553648  143.716  11.1807  0.164381
  7532.982  7532.980  0.500  2.540875  143.313  11.2927  0.166099
  7545.098  7545.080  0.500  2.528101  142.936  11.4078  0.170936
  7557.343  7557.350  0.500  2.514920  142.507  11.5244  0.172051
  7569.774  7569.790  0.500  2.501752  142.087  11.6428  0.173586
  7582.412  7582.410  0.500  2.488553  141.564  11.754  0.186720
  7595.185  7595.190  0.500  2.475186  140.989  11.8638  0.195153
  7608.162  7608.150  0.500  2.462402  139.944  11.9275  0.199970
  7621.302  7621.280  0.500  2.448997  139.756  12.0721  0.207200
  7634.576  7634.580  0.500  2.434992  139.52  12.2217  0.212726
  7648.035  7648.050  0.500  2.421439  138.946  12.3376  0.223064
  7661.683  7661.700  0.500  2.406870  138.428  12.472  0.229360
  7675.501  7675.510  0.500  2.393364  137.896  12.5929  0.231404
  7689.490  7689.500  0.500  2.380042  137.526  12.7276  0.236773
  7703.640  7703.660  0.500  2.365930  136.695  12.8305  0.245930
  7717.970  7717.990  0.500  2.352222  136.18  12.9585  0.256450
  7732.513  7732.490  0.500  2.338444  135.628  13.0851  0.265275
  7747.147  7747.160  0.500  2.323920  135.15  13.2297  0.273656
  7762.011  7762.000  0.500  2.309536  134.506  13.3574  0.282184
  7777.039  7777.020  0.500  2.295432  133.88  13.4841  0.292997
  7792.185  7792.200  0.500  2.281329  133.274  13.6137  0.302547
  7807.590  7807.560  0.500  2.266652  132.7  13.7555  0.310141
  7823.123  7823.090  0.500  2.252161  132.071  13.8901  0.318733
  7838.820  7838.790  0.500  2.237509  131.123  13.994  0.327011
  7854.685  7854.660  0.500  2.223001  129.861  14.0618  0.335652
  7870.698  7870.710  0.500  2.208297  130.062  14.2922  0.350000
  7886.905  7886.920  0.500  2.193520  129.394  14.4305  0.362500
  7903.289  7903.310  0.500  2.179078  128.605  14.5511  0.374237
  7919.854  7919.870  0.500  2.164370  127.903  14.6861  0.385862
  7936.583  7936.600  0.500  2.150682  126.944  14.7768  0.396326
  7953.482  7953.500  0.500  2.135360  126.287  14.9273  0.407318
  7964.846  7964.860  0.500  2.125423  125.736  15.0106  0.415317

File: Fe-IronPhosphate.xdi
# XDI/1.0 BlueSky/1.10.0 BMM/2023-1.0-py310-tiled
# Beamline.name: BMM (06BM) -- Beamline for Materials Measurement (NIST)
# Beamline.xray_source: NSLS-II three-pole wiggler
# Beamline.collimation: paraboloid mirror, 5 nm Rh on 30 nm Pt
# Beamline.focusing: not in use
# Beamline.harmonic_rejection: flat mirror, Si stripe, pitch = 7.0 mrad relative to beam
# Beamline.software: Bluesky 1.10.0, Ophyd 1.7.0, DataBroker 2.0.0b13, Python 3.10.8, 2023-1.0-py310-tiled
# Detector.I0: 10 cm N2
# Detector.I1: 25 cm N2
# Detector.I2: 25 cm N2
# Element.symbol: Fe
# Element.edge: K
# Element.reference: Fe
# Element.reference_material: Fe foil
# Facility.name: NSLS-II
# Facility.energy: 3.0
# Facility.current: 400.8
# Facility.mode: top-off
# Facility.GUP: 123456
# Facility.SAF: 301027
# Facility.cycle: 2023-2
# Mono.name: Si(111)
# Mono.d_spacing: 3.13519
# Mono.encoder_resolution: 0.0000050 deg/ct
# Mono.angle_offset: 16.0754 deg
# Mono.scan_mode: pseudo channel cut
# Mono.scan_type: step
# Mono.direction: forward in energy
# Sample.name: FePO4
# Sample.prep: powder on tape
# Sample.x: 116.329 mm
# Sample.y: 114.126 mm
# Sample.SDD_position: 205.000 mm
# Scan.experimenters: Bruce Ravel
# Scan.edge_energy: 7112.0
# Scan.start_time: 2023-05-05T17:12:59
# Scan.end_time: 2023-05-05T17:21:05
# Scan.transient_id: 74511
# Scan.uid: 43bba369-1f24-4edf-9205-895accda971d
# Scan.plot_hint: ln(I0/It)  --  ln($5/$6)
# Column.1: energy eV
# Column.2: requested_energy eV
# Column.3: measurement_time seconds
# Column.4: xmu
# Column.5: I0 nA
# Column.6: It nA
# Column.7: Ir nA
# ///////////
# Welcome to BMM
# -----------
# energy  requested_energy  measurement_time  xmu  I0  It  Ir
  6911.999  6912.000  0.500  1.127091  154.087  49.9203  9.376513
  6942.003  6942.000  0.500  1.104649  153.926  51  9.783686
  6972.016  6972.000  0.500  1.082206  153.927  52.1578  10.217
  7002.013  7002.000  0.500  1.061002  153.83  53.2418  10.6407
  7032.014  7032.000  0.500  1.039368  153.664  54.3475  11.0756
  7062.008  7062.000  0.500  1.018606  152.734  55.1519  11.4403
  7083.981  7084.000  0.500  1.004340  153.139  56.0928  11.7385
  7089.981  7090.000  0.500  1.000955  153.26  56.3274  11.7913
  7095.973  7096.000  0.500  0.997438  153.206  56.506  11.804
  7101.995  7102.000  0.500  0.994687  153.103  56.6234  11.7251
  7102.884  7102.900  0.500  0.994416  153.101  56.638  11.7002
  7103.781  7103.800  0.500  0.994337  153.077  56.6336  11.6608
  7104.686  7104.700  0.500  0.994208  153.051  56.6313  11.6128
  7105.587  7105.600  0.500  0.994001  153.037  56.6379  11.5511
  7106.492  7106.500  0.500  0.993862  153.015  56.6375  11.4702
  7107.389  7107.400  0.500  0.993872  152.983  56.6254  11.3557
  7108.289  7108.300  0.500  0.994419  152.968  56.5886  11.1759
  7109.193  7109.200  0.500  0.995251  152.928  56.5268  10.8778
  7110.093  7110.100  0.500  0.995972  152.868  56.4639  10.2543
  7110.995  7111.000  0.500  0.998338  152.781  56.2985  8.607048
  7111.893  7111.900  0.500  1.005219  152.701  55.883  6.179331
  7112.792  7112.800  0.500  1.028391  152.632  54.5783  4.743002
  7113.699  7113.700  0.500  1.082123  152.588  51.7084  3.836328
  7114.598  7114.600  0.500  1.065844  152.544  52.5417  3.429301
  7115.500  7115.500  0.500  1.020731  152.535  54.9632  3.359020
  7116.395  7116.400  0.500  1.009826  152.503  55.5543  3.291090
  7117.295  7117.300  0.500  1.010454  152.466  55.5058  3.067652
  7118.201  7118.200  0.500  1.013595  152.421  55.3153  2.572563
  7119.104  7119.100  0.500  1.018800  152.36  55.0062  2.028576
  7119.995  7120.000  0.500  1.030362  152.342  54.3674  1.572373
  7120.903  7120.900  0.500  1.058704  152.293  52.8312  1.174420
  7121.799  7121.800  0.500  1.109767  152.22  50.1771  0.891012
  7122.702  7122.700  0.500  1.190909  152.203  46.2613  0.690835
  7123.606  7123.600  0.500  1.289793  152.138  41.8878  0.545832
  7124.499  7124.500  0.500  1.351524  152.475  39.4674  0.461852
  7125.397  7125.400  0.500  1.379326  152.429  38.3737  0.407504
  7126.297  7126.300  0.500  1.397064  152.348  37.6789  0.364579
  7127.201  7127.200  0.500  1.398128  152.288  37.6242  0.327418
  7128.108  7128.100  0.500  1.400570  152.214  37.5142  0.286581
  7128.998  7129.000  0.500  1.423075  152.142  36.6619  0.241659
  7129.903  7129.900  0.500  1.453718  152.068  35.5384  0.203194
  7130.804  7130.800  0.500  1.478135  151.976  34.66  0.182007
  7131.699  7131.700  0.500  1.498327  151.881  33.9461  0.181550
  7132.599  7132.600  0.500  1.511365  151.873  33.5046  0.198744
  7133.501  7133.500  0.500  1.521036  151.854  33.1779  0.224000
  7134.398  7134.400  0.500  1.526311  151.845  33.0015  0.249616
  7135.303  7135.300  0.500  1.527820  151.841  32.9507  0.269203
  7136.203  7136.200  0.500  1.527782  151.819  32.9471  0.281103
  7136.994  7137.000  0.500  1.525975  151.775  32.9972  0.284048
  7140.026  7140.010  0.500  1.513097  151.766  33.4229  0.256789
  7143.216  7143.200  0.500  1.505960  151.773  33.664  0.253301
  7146.578  7146.560  0.500  1.499205  151.779  33.8935  0.247589
  7150.072  7150.080  0.500  1.483462  151.703  34.4139  0.210101
  7153.777  7153.780  0.500  1.451326  151.688  35.5343  0.204503
  7157.661  7157.650  0.500  1.416608  151.625  36.7743  0.220943
  7161.711  7161.700  0.500  1.387366  151.548  37.8464  0.231063
  7165.920  7165.910  0.500  1.374442  151.414  38.3049  0.246792
  7170.290  7170.290  0.500  1.374529  151.318  38.2772  0.257308
  7174.860  7174.850  0.500  1.392859  151.24  37.5625  0.286474
  7179.585  7179.580  0.500  1.400031  151.185  37.2806  0.327593
  7184.487  7184.480  0.500  1.407148  151.074  36.9891  0.317493
  7189.559  7189.550  0.500  1.412335  150.986  36.7761  0.272525
  7194.801  7194.790  0.500  1.410690  150.795  36.7901  0.238371
  7200.222  7200.210  0.500  1.407661  150.681  36.874  0.274531
  7205.806  7205.790  0.500  1.407341  150.561  36.8563  0.343867
  7211.557  7211.550  0.500  1.408473  150.407  36.7771  0.306858
  7217.496  7217.480  0.500  1.404299  150.246  36.8913  0.186878
  7223.588  7223.580  0.500  1.395248  150.084  37.1865  0.180286
  7229.862  7229.850  0.500  1.383590  150.136  37.6355  0.276196
  7236.301  7236.290  0.500  1.371648  149.959  38.0429  0.389384
  7242.905  7242.900  0.500  1.361089  149.862  38.4218  0.388851
  7249.696  7249.690  0.500  1.352416  149.646  38.7006  0.348409
  7256.664  7256.650  0.500  1.348565  149.665  38.855  0.371881
  7263.791  7263.770  0.500  1.348423  135.844  35.2719  0.316369
  7271.079  7271.070  0.500  1.348744  149.757  38.8719  0.315735
  7278.568  7278.550  0.500  1.347281  149.745  38.9255  0.284943
  7286.205  7286.190  0.500  1.341468  149.36  39.052  0.257856
  7294.018  7294.000  0.500  1.336192  149.364  39.2596  0.288931
  7302.001  7301.990  0.500  1.332024  147.813  39.0141  0.373753
  7310.166  7310.150  0.500  1.327837  149.182  39.5407  0.419198
  7318.486  7318.470  0.500  1.320591  148.971  39.7719  0.422327
  7326.981  7326.970  0.500  1.311492  149.261  40.2136  0.431165
  7335.663  7335.650  0.500  1.303284  149.051  40.4878  0.455026
  7344.502  7344.490  0.500  1.296358  148.804  40.7019  0.442179
  7353.508  7353.500  0.500  1.288406  148.677  40.9918  0.379543
  7362.703  7362.690  0.500  1.280638  148.45  41.2483  0.343410
  7372.058  7372.050  0.500  1.272986  148.245  41.5077  0.360825
  7381.584  7381.570  0.500  1.267392  148.015  41.6758  0.476541
  7391.277  7391.270  0.500  1.261878  147.796  41.8442  0.524993
  7401.160  7401.150  0.500  1.256587  147.556  41.9978  0.510777
  7411.201  7411.190  0.500  1.251325  147.302  42.1469  0.513247
  7421.408  7421.400  0.500  1.245057  146.991  42.3223  0.522898
  7431.802  7431.790  0.500  1.238251  146.697  42.5262  0.545772
  7442.352  7442.350  0.500  1.230132  146.398  42.7853  0.522890
  7453.091  7453.080  0.500  1.222456  144.939  42.6855  0.491733
  7463.985  7463.980  0.500  1.214298  145.872  43.312  0.510791
  7475.058  7475.050  0.500  1.206697  145.689  43.5877  0.563153
  7486.310  7486.290  0.500  1.198549  145.279  43.8206  0.608346
  7497.722  7497.710  0.500  1.191297  144.975  44.0472  0.645332
  7509.300  7509.290  0.500  1.183671  144.614  44.2741  0.641568
  7521.069  7521.050  0.500  1.175909  144.182  44.4858  0.657047
  7533.002  7532.980  0.500  1.168393  143.81  44.7058  0.660552
  7545.100  7545.080  0.500  1.161435  143.414  44.8939  0.675784
  7557.341  7557.350  0.500  1.154133  142.98  45.0859  0.676482
  7569.811  7569.790  0.500  1.147091  142.539  45.2646  0.678107
  7582.432  7582.410  0.500  1.139574  142.136  45.4772  0.725777
  7595.207  7595.190  0.500  1.131791  141.478  45.6204  0.754684
  7608.169  7608.150  0.500  1.123226  140.443  45.6763  0.769317
  7621.299  7621.280  0.500  1.114802  140.302  46.0163  0.794007
  7634.598  7634.580  0.500  1.106555  140.069  46.3204  0.810833
  7648.072  7648.050  0.500  1.098363  139.591  46.5419  0.845882
  7661.723  7661.700  0.500  1.089970  139.025  46.744  0.863677
  7675.531  7675.510  0.500  1.082334  138.511  46.9281  0.866916
  7689.516  7689.500  0.500  1.074129  138.116  47.1797  0.881891
  7703.672  7703.660  0.500  1.066118  137.39  47.3092  0.911626
  7718.000  7717.990  0.500  1.058072  136.774  47.4775  0.944858
  7732.511  7732.490  0.500  1.049987  136.227  47.6715  0.971011
  7747.170  7747.160  0.500  1.041735  135.712  47.8851  0.995447
  7762.026  7762.000  0.500  1.033651  135.102  48.0565  1.019663
  7777.021  7777.020  0.500  1.025372  134.561  48.2622  1.053902
  7792.203  7792.200  0.500  1.017148  133.903  48.4226  1.080530
  7807.569  7807.560  0.500  1.008456  133.318  48.632  1.101970
  7823.105  7823.090  0.500  0.999682  132.681  48.826  1.124904
  7838.809  7838.790  0.500  0.990918  131.718  48.8983  1.147702
  7854.677  7854.660  0.500  0.982305  130.485  48.8596  1.171990
  7870.736  7870.710  0.500  0.973888  130.703  49.3552  1.214385
  7886.945  7886.920  0.500  0.965686  130.032  49.506  1.249519
  7903.295  7903.310  0.500  0.957278  129.677  49.7877  1.285368
  7919.897  7919.870  0.500  0.948738  129.098  49.9906  1.318871
  7936.623  7936.600  0.500  0.940287  128.161  50.049  1.348279
  7953.482  7953.500  0.500  0.931718  127.482  50.2123  1.376670
  7964.889  7964.860  0.500  0.925960  126.904  50.2732  1.396553