Folder: webxdiviewer/xdidata/Fe (part 16)

File: Fe-Wustite.xdi
# XDI/1.0 BlueSky/1.10.0 BMM/2023-1.0-py310-tiled
# Beamline.name: BMM (06BM) -- Beamline for Materials Measurement (NIST)
# Beamline.xray_source: NSLS-II three-pole wiggler
# Beamline.collimation: paraboloid mirror, 5 nm Rh on 30 nm Pt
# Beamline.focusing: not in use
# Beamline.harmonic_rejection: flat mirror, Si stripe, pitch = 7.0 mrad relative to beam
# Beamline.software: Bluesky 1.10.0, Ophyd 1.7.0, DataBroker 2.0.0b13, Python 3.10.8, 2023-1.0-py310-tiled
# Detector.I0: 10 cm N2
# Detector.I1: 25 cm N2
# Detector.I2: 25 cm N2
# Element.symbol: Fe
# Element.edge: K
# Element.reference: Fe
# Element.reference_material: Fe foil
# Facility.name: NSLS-II
# Facility.energy: 3.0
# Facility.current: 400.9
# Facility.mode: top-off
# Facility.GUP: 123456
# Facility.SAF: 301027
# Facility.cycle: 2023-2
# Mono.name: Si(111)
# Mono.d_spacing: 3.13519
# Mono.encoder_resolution: 0.0000050 deg/ct
# Mono.angle_offset: 16.0754 deg
# Mono.scan_mode: pseudo channel cut
# Mono.scan_type: step
# Mono.direction: forward in energy
# Sample.name: FeO
# Sample.prep: powder on tape
# Sample.x: 116.329 mm
# Sample.y: 114.126 mm
# Sample.SDD_position: 205.000 mm
# Scan.experimenters: Bruce Ravel
# Scan.edge_energy: 7112.0
# Scan.start_time: 2023-05-05T16:37:45
# Scan.end_time: 2023-05-05T16:45:53
# Scan.transient_id: 74491
# Scan.uid: ba5b3a2f-e3db-4bac-b267-aafd91d0e1f6
# Scan.plot_hint: ln(I0/It)  --  ln($5/$6)
# Column.1: energy eV
# Column.2: requested_energy eV
# Column.3: measurement_time seconds
# Column.4: xmu
# Column.5: I0 nA
# Column.6: It nA
# Column.7: Ir nA
# ///////////
# Welcome to BMM
# -----------
# energy  requested_energy  measurement_time  xmu  I0  It  Ir
  6912.034  6912.000  0.500  2.385215  153.943  14.1734  2.661995
  6942.019  6942.000  0.500  2.347863  153.821  14.7012  2.820404
  6972.003  6972.000  0.500  2.310384  153.852  15.2656  2.990062
  7002.011  7002.000  0.500  2.274203  153.794  15.8222  3.162531
  7032.008  7032.000  0.500  2.239356  153.683  16.3714  3.336973
  7061.998  7062.000  0.500  2.207289  152.773  16.8048  3.485644
  7083.995  7084.000  0.500  2.189326  153.098  17.1457  3.588898
  7089.990  7090.000  0.500  2.186897  153.204  17.1994  3.601212
  7095.990  7096.000  0.500  2.187380  153.13  17.1827  3.589032
  7101.993  7102.000  0.500  2.194401  153.098  17.059  3.532125
  7102.880  7102.900  0.500  2.196067  153.095  17.0303  3.517512
  7103.785  7103.800  0.500  2.199067  153.046  16.9738  3.493687
  7104.686  7104.700  0.500  2.201777  153.033  16.9265  3.470555
  7105.593  7105.600  0.500  2.205439  153.032  16.8645  3.439277
  7106.490  7106.500  0.500  2.210008  153.002  16.7843  3.397523
  7107.389  7107.400  0.500  2.216374  152.988  16.6763  3.343120
  7108.293  7108.300  0.500  2.223910  152.951  16.547  3.265629
  7109.197  7109.200  0.500  2.235219  152.917  16.3573  3.144234
  7110.097  7110.100  0.500  2.256272  152.889  16.0136  2.898819
  7110.997  7111.000  0.500  2.308248  152.819  15.1956  2.304391
  7111.896  7111.900  0.500  2.384227  152.708  14.0736  1.541084
  7112.792  7112.800  0.500  2.429076  152.642  13.4506  1.160345
  7113.701  7113.700  0.500  2.468088  152.588  12.9313  0.954089
  7114.603  7114.600  0.500  2.503775  152.558  12.4755  0.812782
  7115.498  7115.500  0.500  2.583780  152.559  11.5164  0.703722
  7116.404  7116.400  0.500  2.731981  152.505  9.926609  0.588346
  7117.297  7117.300  0.500  2.962463  152.487  7.882262  0.435821
  7118.203  7118.200  0.500  3.273901  152.451  5.771571  0.269239
  7119.104  7119.100  0.500  3.640537  152.407  3.998879  0.148172
  7120.002  7120.000  0.500  3.968040  152.356  2.881122  0.083627
  7120.896  7120.900  0.500  4.241831  152.309  2.190390  0.048851
  7121.799  7121.800  0.500  4.504538  152.281  1.684024  0.030210
  7122.700  7122.700  0.500  4.820778  152.218  1.226955  0.018649
  7123.597  7123.600  0.500  5.180416  152.198  0.856213  0.011451
  7124.501  7124.500  0.500  5.456814  152.148  0.649233  0.007846
  7125.405  7125.400  0.500  5.617171  152.372  0.553859  0.006126
  7126.303  7126.300  0.500  5.740246  152.305  0.489505  0.005016
  7127.195  7127.200  0.500  5.892849  152.279  0.420155  0.004004
  7128.102  7128.100  0.500  6.033962  152.185  0.364632  0.003146
  7129.004  7129.000  0.500  6.051432  152.148  0.358230  0.002755
  7129.901  7129.900  0.500  5.908512  152.094  0.413121  0.002607
  7130.798  7130.800  0.500  5.686187  151.986  0.515614  0.003102
  7131.706  7131.700  0.500  5.461950  151.993  0.645251  0.003826
  7132.605  7132.600  0.500  5.299210  151.998  0.759310  0.004775
  7133.503  7133.500  0.500  5.195113  152.011  0.842687  0.005974
  7134.403  7134.400  0.500  5.124762  152.08  0.904518  0.007164
  7135.298  7135.300  0.500  5.062506  152.163  0.963143  0.008082
  7136.203  7136.200  0.500  4.998700  152.196  1.026823  0.009055
  7136.998  7137.000  0.500  4.958151  152.224  1.069514  0.009540
  7140.026  7140.010  0.500  5.001003  152.284  1.025056  0.008215
  7143.214  7143.200  0.500  5.158668  152.348  0.875900  0.006873
  7146.546  7146.560  0.500  4.980353  152.449  1.047575  0.007904
  7150.072  7150.080  0.500  4.841519  152.453  1.203629  0.007615
  7153.777  7153.780  0.500  4.792091  152.469  1.264747  0.007549
  7157.658  7157.650  0.500  4.815015  152.44  1.235848  0.007709
  7161.703  7161.700  0.500  4.886978  152.387  1.149633  0.007276
  7165.904  7165.910  0.500  5.034883  152.292  0.990958  0.006719
  7170.296  7170.290  0.500  5.239388  152.194  0.807160  0.005760
  7174.853  7174.850  0.500  5.297788  152.137  0.761089  0.006062
  7179.587  7179.580  0.500  5.196616  152.103  0.841931  0.007696
  7184.490  7184.480  0.500  5.056531  152.002  0.967886  0.008574
  7189.555  7189.550  0.500  4.962675  151.909  1.062482  0.008094
  7194.794  7194.790  0.500  4.900243  151.722  1.129536  0.007669
  7200.219  7200.210  0.500  4.936201  151.651  1.089133  0.008399
  7205.806  7205.790  0.500  4.964684  151.527  1.057684  0.010094
  7211.562  7211.550  0.500  4.957112  151.361  1.064555  0.009098
  7217.485  7217.480  0.500  5.005307  151.245  1.013687  0.005419
  7223.588  7223.580  0.500  5.028347  151.083  0.989538  0.005200
  7229.862  7229.850  0.500  4.943162  151.129  1.077850  0.008279
  7236.301  7236.290  0.500  4.848859  150.975  1.183242  0.012340
  7242.912  7242.900  0.500  4.891071  150.877  1.133593  0.011693
  7249.705  7249.690  0.500  4.956160  150.657  1.060615  0.009924
  7256.664  7256.650  0.500  4.930035  150.646  1.088604  0.010582
  7263.787  7263.770  0.500  4.937209  135.524  0.972333  0.008856
  7271.085  7271.070  0.500  4.947163  150.812  1.071300  0.009010
  7278.562  7278.550  0.500  4.916498  150.735  1.104097  0.008271
  7286.202  7286.190  0.500  4.838521  150.428  1.191201  0.008100
  7294.014  7294.000  0.500  4.767183  150.425  1.279264  0.009672
  7302.003  7301.990  0.500  4.768673  149.041  1.265598  0.012462
  7310.168  7310.150  0.500  4.807478  150.703  1.231011  0.013166
  7318.483  7318.470  0.500  4.820852  150.517  1.213156  0.013118
  7326.978  7326.970  0.500  4.808754  150.377  1.226781  0.013490
  7335.667  7335.650  0.500  4.785001  150.21  1.254875  0.014322
  7344.502  7344.490  0.500  4.752985  149.961  1.293551  0.014075
  7353.510  7353.500  0.500  4.729376  149.815  1.323160  0.012444
  7362.705  7362.690  0.500  4.710936  149.58  1.345677  0.011311
  7372.063  7372.050  0.500  4.685458  149.399  1.378729  0.012223
  7381.575  7381.570  0.500  4.672687  149.209  1.394677  0.016239
  7391.275  7391.270  0.500  4.670775  148.984  1.395233  0.017713
  7401.155  7401.150  0.500  4.663070  148.753  1.403849  0.017236
  7411.198  7411.190  0.500  4.637861  148.508  1.437317  0.017669
  7421.406  7421.400  0.500  4.602603  148.195  1.485762  0.018483
  7431.798  7431.790  0.500  4.582828  147.915  1.512569  0.019488
  7442.366  7442.350  0.500  4.568290  147.585  1.531291  0.018973
  7453.086  7453.080  0.500  4.556562  145.907  1.531749  0.017925
  7463.992  7463.980  0.500  4.549109  147.104  1.555867  0.018392
  7475.063  7475.050  0.500  4.536270  146.97  1.574535  0.020348
  7486.298  7486.290  0.500  4.511504  146.584  1.609780  0.022381
  7497.717  7497.710  0.500  4.480592  146.28  1.656866  0.024498
  7509.302  7509.290  0.500  4.460650  145.901  1.685865  0.024499
  7521.066  7521.050  0.500  4.444387  145.509  1.708905  0.025351
  7532.989  7532.980  0.500  4.426427  145.098  1.734961  0.025808
  7545.093  7545.080  0.500  4.409071  144.666  1.760069  0.026730
  7557.368  7557.350  0.500  4.393817  144.216  1.781569  0.026953
  7569.806  7569.790  0.500  4.378781  143.738  1.802569  0.027188
  7582.422  7582.410  0.500  4.357370  143.27  1.835582  0.029503
  7595.202  7595.190  0.500  4.334875  142.678  1.869587  0.030896
  7608.157  7608.150  0.500  4.314067  141.596  1.894415  0.032031
  7621.290  7621.280  0.500  4.294163  141.407  1.929926  0.033368
  7634.601  7634.580  0.500  4.275118  141.14  1.963311  0.034464
  7648.062  7648.050  0.500  4.257678  140.612  1.990377  0.036198
  7661.711  7661.700  0.500  4.240202  140.097  2.018048  0.037340
  7675.528  7675.510  0.500  4.219889  139.515  2.050908  0.037978
  7689.511  7689.500  0.500  4.199275  139.178  2.088564  0.039127
  7703.675  7703.660  0.500  4.178161  138.406  2.121308  0.040953
  7718.005  7717.990  0.500  4.158264  137.851  2.155256  0.042947
  7732.506  7732.490  0.500  4.138551  137.326  2.189786  0.044537
  7747.175  7747.160  0.500  4.119633  136.814  2.223288  0.046206
  7762.018  7762.000  0.500  4.100406  136.195  2.256203  0.047931
  7777.036  7777.020  0.500  4.079549  135.584  2.293422  0.050185
  7792.213  7792.200  0.500  4.059324  134.983  2.329902  0.052128
  7807.564  7807.560  0.500  4.039150  134.392  2.366975  0.053776
  7823.097  7823.090  0.500  4.018539  133.765  2.404984  0.055447
  7838.794  7838.790  0.500  3.998208  132.802  2.436707  0.057202
  7854.674  7854.660  0.500  3.978170  131.589  2.463323  0.059010
  7870.722  7870.710  0.500  3.958264  132.213  2.524773  0.062100
  7886.939  7886.920  0.500  3.937455  131.727  2.568391  0.064821
  7903.332  7903.310  0.500  3.917047  131.018  2.607238  0.067428
  7919.889  7919.870  0.500  3.896502  130.294  2.646638  0.069862
  7936.623  7936.600  0.500  3.876254  129.331  2.680823  0.072175
  7953.479  7953.500  0.500  3.855624  128.685  2.723033  0.074578
  7964.881  7964.860  0.500  3.842281  128.114  2.747355  0.076364

File: Fe-ZnFerrite.xdi
# XDI/1.0 BlueSky/1.10.0 BMM/2023-1.0-py310-tiled
# Beamline.name: BMM (06BM) -- Beamline for Materials Measurement (NIST)
# Beamline.xray_source: NSLS-II three-pole wiggler
# Beamline.collimation: paraboloid mirror, 5 nm Rh on 30 nm Pt
# Beamline.focusing: not in use
# Beamline.harmonic_rejection: flat mirror, Si stripe, pitch = 7.0 mrad relative to beam
# Beamline.software: Bluesky 1.10.0, Ophyd 1.7.0, DataBroker 2.0.0b13, Python 3.10.8, 2023-1.0-py310-tiled
# Detector.I0: 10 cm N2
# Detector.I1: 25 cm N2
# Detector.I2: 25 cm N2
# Element.symbol: Fe
# Element.edge: K
# Element.reference: Fe
# Element.reference_material: Fe foil
# Facility.name: NSLS-II
# Facility.energy: 3.0
# Facility.current: 400.2
# Facility.mode: top-off
# Facility.GUP: 123456
# Facility.SAF: 301027
# Facility.cycle: 2023-2
# Mono.name: Si(111)
# Mono.d_spacing: 3.13519
# Mono.encoder_resolution: 0.0000050 deg/ct
# Mono.angle_offset: 16.0754 deg
# Mono.scan_mode: pseudo channel cut
# Mono.scan_type: step
# Mono.direction: forward in energy
# Sample.name: ZnFe2O4
# Sample.prep: PEG pellet
# Sample.x: 116.329 mm
# Sample.y: 114.126 mm
# Sample.SDD_position: 205.000 mm
# Scan.experimenters: Bruce Ravel
# Scan.edge_energy: 7112.0
# Scan.start_time: 2023-05-05T17:57:09
# Scan.end_time: 2023-05-05T18:05:18
# Scan.transient_id: 74536
# Scan.uid: 80fc001b-9195-4483-97c3-cb5da880062f
# Scan.plot_hint: ln(I0/It)  --  ln($5/$6)
# Column.1: energy eV
# Column.2: requested_energy eV
# Column.3: measurement_time seconds
# Column.4: xmu
# Column.5: I0 nA
# Column.6: It nA
# Column.7: Ir nA
# ///////////
# courtesy Martin Stennett, University of Sheffield
# -----------
# energy  requested_energy  measurement_time  xmu  I0  It  Ir
  6912.003  6912.000  0.500  2.337933  154.472  14.9107  2.798244
  6942.009  6942.000  0.500  2.300169  154.275  15.4649  2.964476
  6972.012  6972.000  0.500  2.262646  154.23  16.0514  3.142053
  7002.019  7002.000  0.500  2.225877  154.089  16.6374  3.322900
  7032.016  7032.000  0.500  2.190245  153.931  17.2233  3.508448
  7062.010  7062.000  0.500  2.155408  152.99  17.7248  3.674420
  7083.991  7084.000  0.500  2.132205  153.178  18.1632  3.799702
  7089.992  7090.000  0.500  2.126638  153.317  18.2811  3.825133
  7096.116  7096.000  0.500  2.122173  153.218  18.3511  3.831476
  7101.995  7102.000  0.500  2.119109  153.133  18.3972  3.808010
  7102.889  7102.900  0.500  2.118852  153.074  18.3948  3.798829
  7103.781  7103.800  0.500  2.118917  153.066  18.3926  3.785669
  7104.690  7104.700  0.500  2.118954  153.007  18.3848  3.768405
  7105.582  7105.600  0.500  2.119299  152.992  18.3768  3.746360
  7106.490  7106.500  0.500  2.119239  152.961  18.3741  3.719902
  7107.387  7107.400  0.500  2.120008  152.93  18.3563  3.680105
  7108.289  7108.300  0.500  2.120698  152.887  18.3384  3.621883
  7109.193  7109.200  0.500  2.122034  152.882  18.3134  3.524139
  7110.093  7110.100  0.500  2.124502  152.823  18.2612  3.319439
  7110.999  7111.000  0.500  2.129120  152.751  18.1685  2.786862
  7111.893  7111.900  0.500  2.140181  152.686  17.961  1.996115
  7112.788  7112.800  0.500  2.171075  152.606  17.4055  1.517330
  7113.699  7113.700  0.500  2.187454  152.516  17.1126  1.271615
  7114.598  7114.600  0.500  2.188711  152.942  17.1389  1.122053
  7115.500  7115.500  0.500  2.177498  152.933  17.3311  1.060963
  7116.395  7116.400  0.500  2.183596  152.93  17.2254  1.022213
  7117.295  7117.300  0.500  2.199219  152.855  16.95  0.939812
  7118.205  7118.200  0.500  2.219636  152.819  16.6036  0.776001
  7119.104  7119.100  0.500  2.250007  152.76  16.1007  0.597497
  7120.000  7120.000  0.500  2.304107  152.677  15.2445  0.444473
  7120.898  7120.900  0.500  2.394415  152.603  13.9214  0.312284
  7121.797  7121.800  0.500  2.518094  152.525  12.2955  0.220086
  7122.702  7122.700  0.500  2.682005  152.485  10.4339  0.156811
  7123.606  7123.600  0.500  2.864279  152.416  8.691417  0.114101
  7124.495  7124.500  0.500  3.053250  152.313  7.189957  0.084785
  7125.399  7125.400  0.500  3.294602  152.261  5.646250  0.060505
  7126.297  7126.300  0.500  3.561852  152.186  4.319990  0.042188
  7127.201  7127.200  0.500  3.799646  152.092  3.403610  0.030025
  7128.104  7128.100  0.500  3.953014  151.988  2.917683  0.022615
  7128.994  7129.000  0.500  4.065139  151.95  2.607558  0.017659
  7129.901  7129.900  0.500  4.235448  151.809  2.197184  0.012937
  7130.804  7130.800  0.500  4.497839  151.727  1.689182  0.009334
  7131.701  7131.700  0.500  4.770839  151.625  1.284761  0.007156
  7132.603  7132.600  0.500  4.853066  151.619  1.183294  0.007371
  7133.496  7133.500  0.500  4.691036  151.6  1.391259  0.009748
  7134.396  7134.400  0.500  4.438201  151.587  1.791330  0.013755
  7135.305  7135.300  0.500  4.244349  151.569  2.174262  0.018007
  7136.199  7136.200  0.500  4.149527  151.558  2.390350  0.020593
  7136.989  7137.000  0.500  4.130439  151.543  2.436180  0.021286
  7140.019  7140.010  0.500  4.135872  151.469  2.421797  0.018980
  7143.192  7143.200  0.500  3.896335  151.469  3.077272  0.023496
  7146.559  7146.560  0.500  3.986537  151.427  2.811080  0.020782
  7150.080  7150.080  0.500  3.745199  151.369  3.576996  0.022189
  7153.786  7153.780  0.500  3.603306  151.304  4.120544  0.023964
  7157.652  7157.650  0.500  3.504621  151.225  4.545553  0.027544
  7161.698  7161.700  0.500  3.457627  151.131  4.761299  0.029261
  7165.915  7165.910  0.500  3.514797  150.943  4.491134  0.029193
  7170.290  7170.290  0.500  3.642041  150.806  3.950945  0.026938
  7174.858  7174.850  0.500  3.784194  150.701  3.425005  0.026415
  7179.587  7179.580  0.500  3.863938  150.573  3.159812  0.028091
  7184.485  7184.480  0.500  3.923867  150.49  2.974363  0.025848
  7189.555  7189.550  0.500  3.869523  150.373  3.138036  0.023619
  7194.796  7194.790  0.500  3.788949  150.146  3.396198  0.022226
  7200.222  7200.210  0.500  3.717033  150.021  3.646418  0.027401
  7205.803  7205.790  0.500  3.672395  149.91  3.810034  0.035846
  7211.560  7211.550  0.500  3.664866  149.737  3.834411  0.032337
  7217.491  7217.480  0.500  3.648098  149.548  3.894334  0.019989
  7223.586  7223.580  0.500  3.659806  149.39  3.844922  0.018929
  7229.862  7229.850  0.500  3.678634  150.041  3.789641  0.028020
  7236.299  7236.290  0.500  3.644710  149.853  3.915499  0.040367
  7242.908  7242.900  0.500  3.569837  149.774  4.217716  0.042992
  7249.699  7249.690  0.500  3.542218  149.506  4.328069  0.039337
  7256.664  7256.650  0.500  3.600514  149.457  4.081623  0.039308
  7263.784  7263.770  0.500  3.655685  137.053  3.541958  0.031968
  7271.083  7271.070  0.500  3.664551  149.564  3.831193  0.031255
  7278.562  7278.550  0.500  3.661951  149.626  3.842742  0.028313
  7286.198  7286.190  0.500  3.630392  149.204  3.954781  0.026306
  7294.009  7294.000  0.500  3.563090  149.213  4.230360  0.031331
  7301.999  7301.990  0.500  3.500927  147.457  4.448694  0.042939
  7310.161  7310.150  0.500  3.464256  148.987  4.662731  0.049622
  7318.486  7318.470  0.500  3.481462  148.83  4.578371  0.048846
  7326.987  7326.970  0.500  3.506556  148.66  4.459796  0.048116
  7335.656  7335.650  0.500  3.497635  148.454  4.493545  0.050723
  7344.504  7344.490  0.500  3.480735  148.225  4.563059  0.049737
  7353.515  7353.500  0.500  3.460008  148.033  4.652618  0.043225
  7362.703  7362.690  0.500  3.431267  147.81  4.781067  0.040055
  7372.063  7372.050  0.500  3.424272  147.602  4.807829  0.042112
  7381.579  7381.570  0.500  3.404006  147.401  4.899596  0.056044
  7391.277  7391.270  0.500  3.391514  147.19  4.954079  0.062421
  7401.162  7401.150  0.500  3.381418  146.96  4.996511  0.060891
  7411.201  7411.190  0.500  3.367239  146.747  5.060520  0.061861
  7421.406  7421.400  0.500  3.351607  146.436  5.129359  0.063658
  7431.802  7431.790  0.500  3.317332  146.165  5.298396  0.068106
  7442.352  7442.350  0.500  3.294896  145.82  5.405818  0.066252
  7453.093  7453.080  0.500  3.288073  144.486  5.393036  0.062337
  7463.990  7463.980  0.500  3.262092  145.308  5.566491  0.065784
  7475.060  7475.050  0.500  3.246454  145.099  5.646091  0.073073
  7486.305  7486.290  0.500  3.242179  144.705  5.654893  0.078695
  7497.729  7497.710  0.500  3.234156  144.359  5.686793  0.083414
  7509.304  7509.290  0.500  3.218661  143.967  5.759931  0.083775
  7521.066  7521.050  0.500  3.191530  143.6  5.903246  0.087463
  7532.999  7532.980  0.500  3.170310  143.186  6.012449  0.089236
  7545.102  7545.080  0.500  3.150539  142.778  6.115044  0.092257
  7557.336  7557.350  0.500  3.126497  142.369  6.245918  0.093922
  7569.787  7569.790  0.500  3.110811  141.906  6.324003  0.094893
  7582.402  7582.410  0.500  3.099992  141.425  6.371146  0.101799
  7595.189  7595.190  0.500  3.088552  140.787  6.415346  0.106233
  7608.147  7608.150  0.500  3.068234  139.748  6.498708  0.109536
  7621.270  7621.280  0.500  3.046120  139.568  6.635486  0.114883
  7634.573  7634.580  0.500  3.027036  139.299  6.750296  0.118366
  7648.070  7648.050  0.500  3.008635  138.785  6.850310  0.124695
  7661.693  7661.700  0.500  2.990543  138.233  6.947596  0.128530
  7675.493  7675.510  0.500  2.975738  137.64  7.020969  0.129690
  7689.478  7689.500  0.500  2.961587  137.303  7.103620  0.132940
  7703.680  7703.660  0.500  2.941499  136.47  7.203765  0.138996
  7717.993  7717.990  0.500  2.920269  136.344  7.351566  0.146572
  7732.511  7732.490  0.500  2.900088  135.744  7.468428  0.152253
  7747.147  7747.160  0.500  2.880583  135.22  7.586096  0.157833
  7762.026  7762.000  0.500  2.862975  134.609  7.685999  0.163315
  7777.039  7777.020  0.500  2.845410  134.006  7.787152  0.170188
  7792.213  7792.200  0.500  2.829349  133.392  7.876967  0.175885
  7807.592  7807.560  0.500  2.812426  132.816  7.976815  0.181024
  7823.120  7823.090  0.500  2.792855  132.126  8.092204  0.186817
  7838.778  7838.790  0.500  2.773291  131.191  8.193688  0.192511
  7854.643  7854.660  0.500  2.753891  129.931  8.273978  0.198668
  7870.696  7870.710  0.500  2.735330  130.117  8.441014  0.208107
  7886.897  7886.920  0.500  2.716172  129.443  8.559746  0.216005
  7903.292  7903.310  0.500  2.697896  128.698  8.667443  0.223935
  7919.860  7919.870  0.500  2.680541  127.991  8.770692  0.231830
  7936.583  7936.600  0.500  2.663438  126.995  8.852603  0.238904
  7953.474  7953.500  0.500  2.643812  126.292  8.978066  0.246351
  7964.837  7964.860  0.500  2.631448  125.807  9.054838  0.251774