Folder: webxdiviewer/xdidata/Gd (part 2)

File: Gd-L1-Gd_sulfate.xdi
# XDI/1.0 BlueSky/1.10.0 BMM/2023-1.0-py310-tiled
# Beamline.name: BMM (06BM) -- Beamline for Materials Measurement (NIST)
# Beamline.xray_source: NSLS-II three-pole wiggler
# Beamline.collimation: paraboloid mirror, 5 nm Rh on 30 nm Pt
# Beamline.focusing: not in use
# Beamline.harmonic_rejection: flat mirror, Pt stripe, pitch = 7.0 mrad relative to beam
# Beamline.software: Bluesky 1.10.0, Ophyd 1.7.0, DataBroker 2.0.0b13, Python 3.10.8, 2023-1.0-py310-tiled
# Detector.I0: 10 cm N2
# Detector.I1: 25 cm N2
# Detector.I2: 25 cm N2
# Element.symbol: Gd
# Element.edge: L1
# Element.reference: Gd
# Element.reference_material: Gd2O3
# Facility.name: NSLS-II
# Facility.energy: 3.0
# Facility.current: 400.8
# Facility.mode: top-off
# Facility.GUP: 123456
# Facility.SAF: 301027
# Facility.cycle: 2023-2
# Mono.name: Si(111)
# Mono.d_spacing: 3.13519
# Mono.encoder_resolution: 0.0000050 deg/ct
# Mono.angle_offset: 16.0754 deg
# Mono.scan_mode: pseudo channel cut
# Mono.scan_type: step
# Mono.direction: forward in energy
# Sample.name: Gd2(SO4)2
# Sample.prep: powder on tape
# Sample.x: 123.848 mm
# Sample.y: 114.690 mm
# Sample.SDD_position: 205.000 mm
# Scan.experimenters: Bruce Ravel
# Scan.edge_energy: 8375.6
# Scan.start_time: 2023-05-08T21:37:56
# Scan.end_time: 2023-05-08T21:43:41
# Scan.transient_id: 75637
# Scan.uid: fbfba659-7cf8-4d0b-abed-c4a5bf272e04
# Scan.plot_hint: ln(I0/It)  --  ln($5/$6)
# Column.1: energy eV
# Column.2: requested_energy eV
# Column.3: measurement_time seconds
# Column.4: xmu
# Column.5: I0 nA
# Column.6: It nA
# Column.7: Ir nA
# ///////////
# unknown provenence
# -----------
# energy  requested_energy  measurement_time  xmu  I0  It  Ir
  8175.616  8175.600  0.500  2.637017  135.463  9.695675  2.501672
  8195.623  8195.600  0.500  2.619561  135.154  9.843897  2.560797
  8215.632  8215.600  0.500  2.603043  134.784  9.980479  2.621130
  8235.647  8235.600  0.500  2.586960  134.427  10.1154  2.677433
  8255.614  8255.600  0.500  2.572085  134.042  10.2376  2.733807
  8275.601  8275.600  0.500  2.557463  133.685  10.3607  2.789356
  8295.609  8295.600  0.500  2.541820  133.316  10.495  2.848172
  8315.610  8315.600  0.500  2.526638  132.946  10.626  2.906330
  8335.609  8335.600  0.500  2.511589  132.332  10.7373  2.961628
  8347.591  8347.600  0.500  2.503586  131.941  10.7916  2.990438
  8351.584  8351.600  0.500  2.501428  131.623  10.7889  2.994040
  8355.591  8355.600  0.500  2.499324  131.49  10.8006  3.001099
  8359.581  8359.600  0.500  2.497555  131.423  10.8143  3.008561
  8363.589  8363.600  0.500  2.496022  131.402  10.8291  3.015041
  8366.071  8366.100  0.500  2.494920  131.351  10.8368  3.019023
  8367.076  8367.100  0.500  2.494827  131.326  10.8358  3.019364
  8368.082  8368.100  0.500  2.494566  131.316  10.8378  3.021291
  8369.076  8369.100  0.500  2.494557  131.308  10.8372  3.021696
  8370.080  8370.100  0.500  2.494596  131.282  10.8347  3.020971
  8371.080  8371.100  0.500  2.494942  131.26  10.8291  3.019686
  8372.090  8372.100  0.500  2.495280  131.235  10.8234  3.017210
  8373.088  8373.100  0.500  2.496135  131.206  10.8117  3.013214
  8374.080  8374.100  0.500  2.497068  131.184  10.7999  3.008846
  8375.082  8375.100  0.500  2.498201  131.16  10.7856  3.003143
  8376.093  8376.100  0.500  2.499927  131.138  10.7653  2.994194
  8377.092  8377.100  0.500  2.503003  131.111  10.7299  2.978692
  8378.088  8378.100  0.500  2.507835  131.089  10.6765  2.956742
  8379.094  8379.100  0.500  2.514483  131.063  10.6036  2.929515
  8380.091  8380.100  0.500  2.522502  131.041  10.5171  2.899784
  8381.100  8381.100  0.500  2.529625  131.016  10.4405  2.872631
  8382.100  8382.100  0.500  2.536680  130.996  10.3655  2.845558
  8383.089  8383.100  0.500  2.546453  130.954  10.2614  2.811517
  8384.089  8384.100  0.500  2.561118  130.921  10.1095  2.763235
  8385.096  8385.100  0.500  2.579467  130.887  9.923125  2.706342
  8386.098  8386.100  0.500  2.598747  130.846  9.730568  2.645719
  8387.099  8387.100  0.500  2.618279  130.807  9.539526  2.583970
  8388.092  8388.100  0.500  2.637290  130.756  9.356212  2.523879
  8389.094  8389.100  0.500  2.657582  130.732  9.166609  2.461158
  8390.108  8390.100  0.500  2.678139  130.686  8.976931  2.400996
  8391.102  8391.100  0.500  2.694673  130.654  8.827567  2.354718
  8392.098  8392.100  0.500  2.705884  130.644  8.728468  2.326153
  8393.105  8393.100  0.500  2.711006  130.617  8.682112  2.314177
  8394.099  8394.100  0.500  2.710718  130.591  8.682857  2.315810
  8395.099  8395.100  0.500  2.706062  130.562  8.721426  2.327699
  8396.112  8396.100  0.500  2.699189  130.527  8.779282  2.344152
  8397.104  8397.100  0.500  2.692378  130.499  8.837379  2.360103
  8398.090  8398.100  0.500  2.685775  130.467  8.893705  2.375026
  8399.101  8399.100  0.500  2.679819  130.422  8.943787  2.387660
  8400.099  8400.100  0.500  2.674916  130.409  8.986854  2.400678
  8401.595  8401.590  0.500  2.666933  130.371  9.056219  2.420089
  8403.618  8403.610  0.500  2.655236  130.327  9.159689  2.452017
  8405.739  8405.720  0.500  2.643646  130.282  9.263237  2.487943
  8407.906  8407.900  0.500  2.632828  130.239  9.360890  2.525842
  8410.172  8410.160  0.500  2.622480  130.196  9.455130  2.562877
  8412.500  8412.490  0.500  2.613032  130.124  9.539676  2.594692
  8414.917  8414.900  0.500  2.604696  130.082  9.616402  2.622807
  8417.394  8417.380  0.500  2.597035  130.03  9.686487  2.646165
  8419.942  8419.940  0.500  2.592679  129.965  9.723904  2.660313
  8422.595  8422.580  0.500  2.594120  129.895  9.704685  2.657282
  8425.304  8425.300  0.500  2.600732  129.848  9.637216  2.639744
  8428.095  8428.090  0.500  2.609629  129.778  9.546683  2.615556
  8430.970  8430.950  0.500  2.616538  129.709  9.475946  2.597023
  8433.907  8433.890  0.500  2.620671  129.638  9.431682  2.583555
  8436.924  8436.910  0.500  2.621062  129.565  9.422707  2.580774
  8440.025  8440.010  0.500  2.619877  129.51  9.429882  2.581464
  8443.198  8443.180  0.500  2.617512  129.421  9.445715  2.584629
  8446.442  8446.430  0.500  2.614362  129.336  9.469247  2.591894
  8449.755  8449.750  0.500  2.611009  129.244  9.494287  2.602369
  8453.157  8453.150  0.500  2.606217  129.164  9.533990  2.620507
  8456.645  8456.630  0.500  2.599803  129.085  9.589509  2.643143
  8460.188  8460.180  0.500  2.592985  128.997  9.648489  2.667159
  8463.823  8463.810  0.500  2.585819  129.369  9.745900  2.699214
  8467.520  8467.510  0.500  2.579988  129.279  9.796124  2.717101
  8471.294  8471.290  0.500  2.575119  129.177  9.836166  2.730797
  8475.139  8475.150  0.500  2.571930  129.074  9.859688  2.740080
  8479.084  8479.080  0.500  2.569911  129.012  9.874864  2.749924
  8483.091  8483.090  0.500  2.567992  128.9  9.885287  2.759526
  8487.182  8487.180  0.500  2.567173  128.787  9.884649  2.765689
  8491.348  8491.340  0.500  2.566175  128.672  9.885723  2.771343
  8495.593  8495.580  0.500  2.564759  128.578  9.892467  2.778774
  8499.905  8499.890  0.500  2.562953  128.474  9.902383  2.785120
  8504.298  8504.280  0.500  2.560157  128.36  9.921288  2.793880
  8508.765  8508.750  0.500  2.556674  128.226  9.945531  2.802092
  8513.305  8513.290  0.500  2.552782  128.109  9.975190  2.814228
[...]
  8542.162  8542.150  0.500  2.525826  127.457  10.1956  2.913649
  8547.231  8547.220  0.500  2.521709  127.325  10.227  2.928695
  8552.382  8552.370  0.500  2.517999  127.193  10.2544  2.940786
  8557.611  8557.600  0.500  2.514311  127.064  10.2818  2.952225
  8562.925  8562.910  0.500  2.510916  126.929  10.3059  2.965307
  8568.307  8568.290  0.500  2.506902  126.79  10.336  2.980586
  8573.777  8573.750  0.500  2.503153  126.626  10.3614  2.994581
  8579.305  8579.280  0.500  2.499616  126.45  10.3837  3.008697
  8584.907  8584.890  0.500  2.496535  126.233  10.3978  3.020553
  8590.596  8590.570  0.500  2.493264  125.185  10.3452  3.012047
  8596.368  8596.340  0.500  2.488598  125.301  10.4032  3.035358
  8602.197  8602.170  0.500  2.483628  125.557  10.4765  3.061493
  8608.109  8608.090  0.500  2.478661  125.132  10.493  3.072506
  8614.101  8614.080  0.500  2.474008  123.389  10.3951  3.050137
  8620.164  8620.150  0.500  2.468716  125.98  10.6697  3.138024
  8626.307  8626.290  0.500  2.463949  126.135  10.7339  3.164163
  8632.536  8632.510  0.500  2.459519  125.701  10.7444  3.174003
  8638.825  8638.800  0.500  2.455155  125.171  10.7459  3.183228
  8645.194  8645.170  0.500  2.449063  122.647  10.5936  3.145945
  8651.641  8651.620  0.500  2.445158  125.008  10.8397  3.226840
  8658.165  8658.150  0.500  2.440186  124.846  10.8797  3.247748
  8664.776  8664.750  0.500  2.435401  124.671  10.9165  3.265984
  8671.440  8671.420  0.500  2.430744  124.497  10.9522  3.283913
  8678.186  8678.170  0.500  2.425940  124.332  10.9903  3.304115
  8685.013  8685.000  0.500  2.421236  124.156  11.0265  3.323828
  8691.930  8691.910  0.500  2.416552  123.957  11.0605  3.343472
  8698.910  8698.890  0.500  2.411734  123.676  11.0887  3.359938
  8705.967  8705.950  0.500  2.406838  121.428  10.9406  3.323237
  8713.094  8713.080  0.500  2.401798  123.518  11.1852  3.405445
  8720.305  8720.290  0.500  2.396348  123.402  11.2358  3.429840
  8727.598  8727.580  0.500  2.391210  123.248  11.2795  3.452307
  8734.952  8734.940  0.500  2.385851  123.074  11.3241  3.473892
  8742.400  8742.380  0.500  2.380476  122.891  11.3682  3.497630
  8749.902  8749.890  0.500  2.374818  122.707  11.4156  3.521484
  8757.492  8757.480  0.500  2.369633  122.522  11.4576  3.545013
  8765.176  8765.150  0.500  2.364297  122.339  11.5018  3.567665
  8772.902  8772.890  0.500  2.358751  122.14  11.5469  3.592807
  8780.730  8780.710  0.500  2.353610  121.963  11.5896  3.615488
  8788.634  8788.610  0.500  2.348061  121.744  11.6332  3.639701
  8796.603  8796.580  0.500  2.342463  121.53  11.6779  3.664427
  8804.651  8804.630  0.500  2.336927  121.344  11.7247  3.688402
  8812.773  8812.750  0.500  2.330779  121.132  11.7765  3.714372
  8820.975  8820.950  0.500  2.325067  120.911  11.8223  3.739309
  8829.239  8829.230  0.500  2.319751  120.705  11.865  3.764602
  8837.586  8837.580  0.500  2.313576  120.502  11.9185  3.792678
  8846.027  8846.010  0.500  2.308238  120.268  11.959  3.816596
  8854.528  8854.510  0.500  2.302310  120.049  12.0082  3.844022
  8863.107  8863.090  0.500  2.296085  119.813  12.0594  3.871275
  8871.771  8871.750  0.500  2.290051  119.568  12.1076  3.898820
  8880.503  8880.490  0.500  2.283760  119.344  12.1611  3.926690
  8889.314  8889.300  0.500  2.277734  119.106  12.2103  3.954381
  8898.207  8898.180  0.500  2.271607  118.859  12.2599  3.981979
  8907.181  8907.140  0.500  2.265489  118.547  12.3027  4.007517
  8916.197  8916.180  0.500  2.259599  118.26  12.3455  4.035136
  8920.753  8920.730  0.500  2.256722  118.244  12.3793  4.051628

File: Gd-L3-Gd2Ti2O7.xdi
# XDI/1.0 BlueSky/1.10.0 BMM/2023-1.0-py310-tiled
# Beamline.name: BMM (06BM) -- Beamline for Materials Measurement (NIST)
# Beamline.xray_source: NSLS-II three-pole wiggler
# Beamline.collimation: paraboloid mirror, 5 nm Rh on 30 nm Pt
# Beamline.focusing: not in use
# Beamline.harmonic_rejection: flat mirror, Si stripe, pitch = 7.0 mrad relative to beam
# Beamline.software: Bluesky 1.10.0, Ophyd 1.7.0, DataBroker 2.0.0b13, Python 3.10.8, 2023-1.0-py310-tiled
# Detector.I0: 10 cm N2
# Detector.I1: 25 cm N2
# Detector.I2: 25 cm N2
# Element.symbol: Gd
# Element.edge: L3
# Element.reference: Gd
# Element.reference_material: Gd2O3
# Facility.name: NSLS-II
# Facility.energy: 3.0
# Facility.current: 397.3
# Facility.mode: top-off
# Facility.GUP: 123456
# Facility.SAF: 301027
# Facility.cycle: 2023-2
# Mono.name: Si(111)
# Mono.d_spacing: 3.13519
# Mono.encoder_resolution: 0.0000050 deg/ct
# Mono.angle_offset: 16.0754 deg
# Mono.scan_mode: pseudo channel cut
# Mono.scan_type: step
# Mono.direction: forward in energy
# Sample.name: Gd2Ti2O7
# Sample.prep: Powder in PEG pellet
# Sample.x: 149.848 mm
# Sample.y: 114.690 mm
# Sample.SDD_position: 205.000 mm
# Scan.experimenters: Bruce Ravel
# Scan.edge_energy: 7242.8
# Scan.start_time: 2023-05-08T18:17:32
# Scan.end_time: 2023-05-08T18:23:15
# Scan.transient_id: 75483
# Scan.uid: c05e67ee-5012-4dd7-bfc7-33af8a257bb2
# Scan.plot_hint: ln(I0/It)  --  ln($5/$6)
# Column.1: energy eV
# Column.2: requested_energy eV
# Column.3: measurement_time seconds
# Column.4: xmu
# Column.5: I0 nA
# Column.6: It nA
# Column.7: Ir nA
# ///////////
# sample courtesy Martin Stennett, University of Sheffield
# -----------
# energy  requested_energy  measurement_time  xmu  I0  It  Ir
  7042.807  7042.800  0.500  1.512848  150.049  33.053  6.388432
  7062.815  7062.800  0.500  1.495925  148.694  33.3136  6.528078
  7082.845  7082.800  0.500  1.479462  148.913  33.9165  6.735646
  7102.827  7102.800  0.500  1.462985  150.019  34.736  6.992342
  7122.821  7122.800  0.500  1.446923  149.913  35.2735  7.195839
  7142.816  7142.800  0.500  1.431246  149.676  35.7742  7.390829
  7162.812  7162.800  0.500  1.415808  149.69  36.3342  7.604975
  7182.815  7182.800  0.500  1.400181  149.474  36.8532  7.809533
  7202.814  7202.800  0.500  1.385966  149.124  37.2932  7.995748
  7214.802  7214.800  0.500  1.378537  149.005  37.5413  8.095775
  7218.801  7218.800  0.500  1.376700  148.912  37.5869  8.116721
  7222.795  7222.800  0.500  1.376229  148.825  37.5826  8.122476
  7226.799  7226.800  0.500  1.376347  148.485  37.4924  8.100693
  7230.801  7230.800  0.500  1.379000  148.828  37.4793  8.076589
  7233.286  7233.300  0.500  1.383863  148.768  37.2825  8.004244
  7234.283  7234.300  0.500  1.386197  148.737  37.1879  7.963385
  7235.285  7235.300  0.500  1.389944  148.703  37.0402  7.907604
  7236.285  7236.300  0.500  1.395200  148.686  36.842  7.832407
  7237.282  7237.300  0.500  1.401758  148.675  36.5984  7.734164
  7238.287  7238.300  0.500  1.410928  148.667  36.2625  7.598742
  7239.288  7239.300  0.500  1.424912  148.647  35.754  7.398813
  7240.294  7240.300  0.500  1.444256  148.616  35.0617  7.127514
  7241.284  7241.300  0.500  1.467575  148.584  34.2461  6.806579
  7242.289  7242.300  0.500  1.495204  148.572  33.3102  6.435002
  7243.295  7243.300  0.500  1.540292  148.529  31.8325  5.857196
  7244.293  7244.300  0.500  1.613842  147.353  29.3411  4.967667
  7245.292  7245.300  0.500  1.716209  146.115  26.2636  3.950589
  7246.288  7246.300  0.500  1.814407  148.266  24.1577  3.279864
  7247.294  7247.300  0.500  1.881624  148.407  22.6087  2.889589
  7248.297  7248.300  0.500  1.912806  148.423  21.9169  2.693334
  7249.299  7249.300  0.500  1.902344  148.404  22.1446  2.710619
  7250.292  7250.300  0.500  1.856597  148.38  23.1774  2.970173
  7251.292  7251.300  0.500  1.792421  148.327  24.7047  3.414614
  7252.300  7252.300  0.500  1.725192  148.26  26.4109  3.944946
  7253.298  7253.300  0.500  1.673441  148.01  27.7666  4.400320
  7254.290  7254.300  0.500  1.638138  145.915  28.3573  4.687208
  7255.293  7255.300  0.500  1.614446  148.157  29.4833  5.016601
  7256.297  7256.300  0.500  1.598840  148.456  30.0076  5.205511
  7257.299  7257.300  0.500  1.584487  148.378  30.4254  5.348018
  7258.299  7258.300  0.500  1.573592  148.302  30.7428  5.454286
  7259.304  7259.300  0.500  1.565052  148.226  30.9907  5.539134
  7260.300  7260.300  0.500  1.558919  148.116  31.1581  5.593609
  7261.303  7261.300  0.500  1.554717  147.856  31.2345  5.619565
  7262.304  7262.300  0.500  1.553058  147.266  31.1614  5.604234
  7263.303  7263.300  0.500  1.554131  144.491  30.5415  5.486895
  7264.309  7264.300  0.500  1.556917  123.024  25.9315  4.652207
  7265.299  7265.300  0.500  1.560726  138.204  29.0206  5.199858
  7266.299  7266.300  0.500  1.566962  148.108  30.907  5.541897
  7267.304  7267.300  0.500  1.571456  148.549  30.8599  5.545724
  7268.791  7268.790  0.500  1.574442  148.62  30.7825  5.557971
  7270.820  7270.810  0.500  1.573222  148.573  30.8104  5.588854
  7272.920  7272.920  0.500  1.572762  148.313  30.7707  5.567525
  7275.114  7275.100  0.500  1.576698  148.412  30.6702  5.503581
  7277.367  7277.360  0.500  1.583381  148.626  30.5099  5.410058
  7279.698  7279.690  0.500  1.591094  148.58  30.2662  5.288475
  7282.114  7282.100  0.500  1.597234  148.513  30.0672  5.186320
  7284.584  7284.580  0.500  1.597419  145.747  29.5018  5.069697
  7287.159  7287.140  0.500  1.591045  148.319  30.2145  5.226320
  7289.794  7289.780  0.500  1.581794  148.355  30.5026  5.339085
  7292.507  7292.500  0.500  1.571099  148.32  30.8234  5.456800
  7295.302  7295.290  0.500  1.561576  148.291  31.1123  5.553480
  7298.157  7298.150  0.500  1.554636  148.225  31.3149  5.628408
  7301.100  7301.090  0.500  1.550026  146.716  31.1395  5.630551
  7304.118  7304.110  0.500  1.548287  148.294  31.5292  5.726911
  7307.215  7307.210  0.500  1.548645  148.219  31.5018  5.746202
  7310.390  7310.380  0.500  1.550079  148.167  31.4456  5.751351
  7313.650  7313.630  0.500  1.553887  148.119  31.3161  5.735518
  7316.963  7316.950  0.500  1.555106  148.08  31.2695  5.721228
  7320.364  7320.350  0.500  1.552504  148.03  31.3405  5.718274
  7323.845  7323.830  0.500  1.548982  147.979  31.4402  5.719767
  7327.391  7327.380  0.500  1.544371  147.926  31.5742  5.733826
  7331.014  7331.010  0.500  1.539494  147.877  31.718  5.762521
  7334.723  7334.710  0.500  1.535623  147.828  31.8306  5.795869
  7338.505  7338.490  0.500  1.535146  146.76  31.6157  5.775231
  7342.363  7342.350  0.500  1.535935  147.583  31.7679  5.819671
  7346.295  7346.280  0.500  1.535861  147.586  31.7708  5.837503
  7350.305  7350.290  0.500  1.532372  147.537  31.8712  5.870604
  7354.393  7354.380  0.500  1.527322  147.464  32.0168  5.909151
  7358.557  7358.540  0.500  1.523342  147.414  32.1336  5.944929
  7362.800  7362.780  0.500  1.518529  147.358  32.2765  5.997808
  7367.107  7367.090  0.500  1.512617  147.283  32.4513  6.069133
  7371.494  7371.480  0.500  1.508025  147.253  32.594  6.138077
  7375.954  7375.950  0.500  1.506942  147.168  32.6105  6.172768
  7380.502  7380.490  0.500  1.506180  147.085  32.617  6.184081
  7385.123  7385.110  0.500  1.505422  147.024  32.6281  6.186452
[...]
  7409.360  7409.350  0.500  1.486755  146.679  33.165  6.313337
  7414.442  7414.420  0.500  1.482090  146.604  33.303  6.378535
  7419.581  7419.570  0.500  1.478284  147.163  33.5575  6.465877
  7424.814  7424.800  0.500  1.475278  147.073  33.6378  6.507334
  7430.116  7430.110  0.500  1.473221  146.964  33.6821  6.531645
  7435.501  7435.490  0.500  1.471179  146.857  33.7264  6.552613
  7440.959  7440.950  0.500  1.468015  146.716  33.8008  6.581871
  7446.483  7446.480  0.500  1.463956  143.973  33.3038  6.500321
  7452.103  7452.090  0.500  1.460662  146.357  33.967  6.657039
  7457.774  7457.770  0.500  1.456297  146.371  34.1187  6.723014
  7463.549  7463.540  0.500  1.450411  146.434  34.335  6.798914
  7469.374  7469.370  0.500  1.445723  146.46  34.5025  6.857518
  7475.310  7475.290  0.500  1.441767  146.278  34.5961  6.893699
  7481.285  7481.280  0.500  1.438325  146.138  34.6823  6.926237
  7487.367  7487.350  0.500  1.434894  146.014  34.7718  6.960524
  7493.500  7493.490  0.500  1.431393  145.878  34.8614  6.995970
  7499.726  7499.710  0.500  1.427868  145.773  34.9592  7.036836
  7506.005  7506.000  0.500  1.423619  145.63  35.0738  7.087413
  7512.386  7512.370  0.500  1.418521  145.507  35.2231  7.148903
  7518.827  7518.820  0.500  1.413480  145.391  35.3729  7.213183
  7525.366  7525.350  0.500  1.409002  145.259  35.4995  7.272711
  7531.958  7531.950  0.500  1.404543  145.123  35.6246  7.327558
  7538.632  7538.620  0.500  1.400606  144.986  35.7315  7.374215
  7545.384  7545.370  0.500  1.396814  144.847  35.8328  7.418627
  7552.214  7552.200  0.500  1.393174  144.698  35.9264  7.463870
  7559.127  7559.110  0.500  1.388825  144.534  36.0422  7.521126
  7566.110  7566.090  0.500  1.383756  144.351  36.1794  7.584892
  7573.189  7573.150  0.500  1.378386  144.192  36.3342  7.649038
  7580.296  7580.280  0.500  1.373464  144.017  36.4692  7.709127
  7587.513  7587.490  0.500  1.367952  143.799  36.6152  7.767490
  7594.816  7594.780  0.500  1.363354  143.519  36.7123  7.822136
  7602.158  7602.140  0.500  1.358845  141.64  36.3954  7.784661
  7609.603  7609.580  0.500  1.354589  142.501  36.7728  7.895344
  7617.108  7617.090  0.500  1.350095  142.439  36.9223  7.956338
  7624.698  7624.680  0.500  1.345489  142.624  37.1411  8.036255
  7632.365  7632.350  0.500  1.340480  142.52  37.3004  8.106663
  7640.111  7640.090  0.500  1.335141  142.313  37.4454  8.175949
  7647.928  7647.910  0.500  1.330203  142.072  37.5671  8.241204
  7655.839  7655.810  0.500  1.324716  141.88  37.7229  8.313732
  7663.797  7663.780  0.500  1.319653  141.637  37.8494  8.381314
  7671.839  7671.830  0.500  1.315003  141.381  37.957  8.445503
  7679.978  7679.950  0.500  1.309837  141.115  38.0818  8.509153
  7688.167  7688.150  0.500  1.305620  137.872  37.3639  8.378172
  7696.455  7696.430  0.500  1.300569  140.653  38.3105  8.625780
  7704.769  7704.780  0.500  1.294944  140.189  38.3996  8.687084
  7713.203  7713.210  0.500  1.289175  140.101  38.5977  8.772717
  7721.730  7721.710  0.500  1.283784  139.015  38.5055  8.793780
  7730.297  7730.290  0.500  1.278042  139.533  38.8715  8.918736
  7738.955  7738.950  0.500  1.272672  138.985  38.9272  8.976663
  7747.695  7747.690  0.500  1.267393  139.03  39.1459  9.074370
  7756.499  7756.500  0.500  1.262299  138.7  39.2523  9.140758
  7765.388  7765.380  0.500  1.257412  138.388  39.3561  9.203616
  7774.345  7774.340  0.500  1.252286  138.051  39.4621  9.262435
  7783.390  7783.380  0.500  1.246820  137.723  39.584  9.334798
  7787.952  7787.930  0.500  1.244054  137.558  39.6461  9.372728