Folder: webxdiviewer/xdidata/Ge

Note: xdidata/README.md
# bmm-standards
A pretty webpage for BMM's collection of common XAFS materials

[BMM's common materials collection](./BMM-standards.html)

Plotting of the data will happen soon.

Periodic table adapted from [some guy named Daniel](https://codepen.io/gooseofmusic/pen/PjKdNQ)

[This](https://www.coderstool.com/scss-to-css) is a helpful tool for
dealing with Sassy CSS.

File: Ge-K-GermaniumOxide.xdi
# XDI/1.0 BlueSky/1.10.0 BMM/2023-1.0-py310-tiled
# Beamline.name: BMM (06BM) -- Beamline for Materials Measurement (NIST)
# Beamline.xray_source: NSLS-II three-pole wiggler
# Beamline.collimation: paraboloid mirror, 5 nm Rh on 30 nm Pt
# Beamline.focusing: not in use
# Beamline.harmonic_rejection: flat mirror, Pt stripe, pitch = 7.0 mrad relative to beam
# Beamline.software: Bluesky 1.10.0, Ophyd 1.7.0, DataBroker 2.0.0b13, Python 3.10.8, 2023-1.0-py310-tiled
# Detector.I0: 10 cm N2
# Detector.I1: 25 cm N2
# Detector.I2: 25 cm N2
# Element.symbol: Ge
# Element.edge: K
# Element.reference: Ge
# Element.reference_material: GeO2
# Facility.name: NSLS-II
# Facility.energy: 3.0
# Facility.current: 399.3
# Facility.mode: top-off
# Facility.GUP: 301027
# Facility.SAF: 310583
# Facility.cycle: 2023-2
# Mono.name: Si(111)
# Mono.d_spacing: 3.13519
# Mono.encoder_resolution: 0.0000050 deg/ct
# Mono.angle_offset: 16.0754 deg
# Mono.scan_mode: pseudo channel cut
# Mono.scan_type: step
# Mono.direction: forward in energy
# Sample.name: GeO2
# Sample.prep: PEG pellet
# Sample.x: 109.138 mm
# Sample.y: 153.150 mm
# Sample.SDD_position: 205.000 mm
# Scan.experimenters: Bruce Ravel
# Scan.edge_energy: 11103.1
# Scan.start_time: 2023-05-28T18:35:44
# Scan.end_time: 2023-05-28T18:43:33
# Scan.transient_id: 78917
# Scan.uid: 8cf39e21-e6ac-4343-be0b-623baccc9895
# Scan.plot_hint: ln(It/Ir)  --  ln($6/$7)
# Column.1: energy eV
# Column.2: requested_energy eV
# Column.3: measurement_time seconds
# Column.4: xmu
# Column.5: I0 nA
# Column.6: It nA
# Column.7: Ir nA
# ///////////
# sample courtesy Martin Stennett, University of Sheffield
# -----------
# energy  requested_energy  measurement_time  xmu  I0  It  Ir
  10903.129  10903.100  0.500  0.667800  80.4427  130.359  66.8525
  10933.169  10933.100  0.500  0.662467  80.0646  129.936  66.9922
  10963.118  10963.100  0.500  0.657324  79.5495  129.291  67.0033
  10993.144  10993.100  0.500  0.652349  79.0157  128.626  66.9912
  11023.170  11023.100  0.500  0.647527  78.4807  127.943  66.9574
  11053.177  11053.100  0.500  0.643266  77.9471  127.248  66.8781
  11075.093  11075.100  0.500  0.641331  77.5355  126.721  66.7302
  11081.126  11081.100  0.500  0.641475  77.4377  126.602  66.6577
  11087.214  11087.100  0.500  0.642271  77.3216  126.445  66.5223
  11093.089  11093.100  0.500  0.644565  77.2105  126.3  66.2938
  11093.965  11094.000  0.500  0.645110  77.1928  126.267  66.2402
  11094.869  11094.900  0.500  0.645876  77.1697  126.253  66.1823
  11095.788  11095.800  0.500  0.646623  77.1404  126.191  66.1003
  11096.676  11096.700  0.500  0.647585  77.1233  126.181  66.0317
  11097.590  11097.600  0.500  0.648675  77.0566  126.068  65.9006
  11098.473  11098.500  0.500  0.649969  77.0099  125.994  65.7765
  11099.377  11099.400  0.500  0.651631  77.0333  126.047  65.695
  11100.276  11100.300  0.500  0.653517  77.0427  126.055  65.5754
  11101.175  11101.200  0.500  0.655903  77.0247  126.048  65.4156
  11102.080  11102.100  0.500  0.658887  76.9995  126.01  65.2008
  11102.984  11103.000  0.500  0.662594  76.9848  125.98  64.9442
  11103.894  11103.900  0.500  0.667521  76.9482  125.93  64.5996
  11104.789  11104.800  0.500  0.674115  76.8842  125.84  64.1287
  11105.694  11105.700  0.500  0.683214  76.8337  125.744  63.4995
  11106.599  11106.600  0.500  0.695971  76.8146  125.742  62.6939
  11107.494  11107.500  0.500  0.715108  76.8173  125.742  61.5056
  11108.389  11108.400  0.500  0.746620  76.8482  125.801  59.6253
  11109.295  11109.300  0.500  0.799190  76.8365  125.799  56.5708
  11110.190  11110.200  0.500  0.881857  76.8179  125.766  52.0687
  11111.090  11111.100  0.500  1.001216  76.7458  125.661  46.1719
  11111.991  11112.000  0.500  1.116700  76.7183  125.617  41.1217
  11112.903  11112.900  0.500  1.176890  76.7383  125.649  38.7295
  11113.809  11113.800  0.500  1.167027  76.7359  125.656  39.1156
  11114.716  11114.700  0.500  1.115511  76.7195  125.635  41.1766
  11115.612  11115.600  0.500  1.064156  76.6992  125.603  43.3354
  11116.514  11116.500  0.500  1.026608  76.6781  125.57  44.9816
  11117.399  11117.400  0.500  1.000581  76.6558  125.54  46.1569
  11118.301  11118.300  0.500  0.989446  76.6061  125.45  46.6401
  11119.193  11119.200  0.500  1.000285  76.5474  125.374  46.1093
  11120.089  11120.100  0.500  1.021492  76.5409  125.383  45.1449
  11120.992  11121.000  0.500  1.027314  76.5655  125.419  44.896
  11121.889  11121.900  0.500  1.020075  76.5456  125.404  45.2167
  11122.791  11122.800  0.500  1.016533  76.536  125.387  45.3709
  11123.710  11123.700  0.500  1.015228  76.5083  125.342  45.414
  11124.602  11124.600  0.500  1.007181  76.4879  125.321  45.7732
  11125.505  11125.500  0.500  0.994427  76.4731  125.285  46.3474
  11126.409  11126.400  0.500  0.981677  76.4458  125.251  46.9292
  11127.307  11127.300  0.500  0.971858  76.4237  125.218  47.3798
  11128.103  11128.100  0.500  0.967397  76.7271  125.722  47.7834
  11131.105  11131.110  0.500  0.974317  76.6863  125.656  47.4287
  11134.313  11134.300  0.500  0.966755  76.6244  125.607  47.7702
  11137.684  11137.660  0.500  0.944322  76.545  125.492  48.8094
  11141.193  11141.180  0.500  0.918460  76.4844  125.411  50.0555
  11144.898  11144.880  0.500  0.900688  76.4155  125.315  50.9142
  11148.773  11148.750  0.500  0.894846  76.3392  125.211  51.17
  11152.802  11152.800  0.500  0.892824  76.2656  125.123  51.2376
  11157.028  11157.010  0.500  0.895692  76.1894  125.022  51.0496
  11161.388  11161.390  0.500  0.907139  76.1021  124.9  50.4194
  11165.957  11165.950  0.500  0.916433  76.0241  124.795  49.911
  11170.687  11170.680  0.500  0.934995  75.934  124.671  48.9441
  11175.594  11175.580  0.500  0.947629  75.8584  124.562  48.2875
  11180.675  11180.650  0.500  0.947417  75.7538  124.44  48.2506
  11185.895  11185.890  0.500  0.944137  75.6549  124.312  48.3593
  11191.328  11191.310  0.500  0.944830  75.5607  124.175  48.2726
  11196.896  11196.890  0.500  0.944147  75.4528  124.038  48.2521
  11202.651  11202.650  0.500  0.939018  75.3548  123.899  48.4458
  11208.596  11208.580  0.500  0.933510  75.2419  123.745  48.6531
  11214.685  11214.680  0.500  0.929247  75.1298  123.602  48.8045
  11220.956  11220.950  0.500  0.923758  75.0113  123.435  49.0068
  11227.403  11227.390  0.500  0.917789  74.8787  123.27  49.2342
  11234.022  11234.000  0.500  0.912735  74.7291  123.062  49.4003
  11240.787  11240.790  0.500  0.909616  72.6936  119.746  48.2193
  11247.763  11247.750  0.500  0.909416  74.5719  122.893  49.4962
  11254.891  11254.870  0.500  0.910520  74.4217  122.672  49.3528
  11262.194  11262.170  0.500  0.911354  74.2775  122.461  49.2269
  11269.672  11269.650  0.500  0.913733  74.1273  122.26  49.0293
  11277.303  11277.290  0.500  0.917902  73.9847  122.057  48.744
  11285.100  11285.100  0.500  0.918981  73.8288  121.85  48.609
  11293.108  11293.090  0.500  0.916164  73.654  121.604  48.6479
  11301.249  11301.250  0.500  0.911913  73.3946  121.235  48.7067
  11309.591  11309.570  0.500  0.907955  73.3793  121.251  48.9064
  11318.085  11318.070  0.500  0.906715  73.0526  120.757  48.7674
  11326.764  11326.750  0.500  0.905279  73.0926  120.857  48.8781
  11335.580  11335.590  0.500  0.902409  72.8184  120.458  48.8569
  11344.605  11344.600  0.500  0.900313  72.6211  120.181  48.8465
  11353.803  11353.790  0.500  0.898190  71.8133  118.893  48.4258
  11363.166  11363.150  0.500  0.894385  72.8756  120.694  49.347
  11372.681  11372.670  0.500  0.890732  72.4241  120.002  49.2433
  11382.380  11382.370  0.500  0.888176  72.2839  119.806  49.2888
  11392.277  11392.250  0.500  0.887247  71.7758  119.025  49.0129
  11402.315  11402.290  0.500  0.888320  71.9393  119.343  49.0911
  11412.519  11412.500  0.500  0.888401  71.6738  118.966  48.9323
  11422.889  11422.890  0.500  0.887257  71.5771  118.849  48.9399
  11433.477  11433.450  0.500  0.884647  71.3443  118.521  48.9328
  11444.204  11444.180  0.500  0.880852  71.127  118.217  48.9927
  11455.106  11455.080  0.500  0.877568  70.9088  117.907  49.0249
  11466.183  11466.150  0.500  0.875298  70.6943  117.602  49.0092
  11477.414  11477.390  0.500  0.873199  68.8345  114.563  47.8429
  11488.839  11488.810  0.500  0.872040  70.3489  117.134  48.9735
  11500.426  11500.390  0.500  0.869599  70.1146  116.804  48.9547
  11512.157  11512.150  0.500  0.866242  69.8851  116.484  48.985
  11524.120  11524.080  0.500  0.862707  69.6477  116.132  49.0096
  11536.219  11536.180  0.500  0.859771  69.4013  115.787  49.0079
  11548.465  11548.450  0.500  0.857585  69.3334  115.732  49.0916
  11560.906  11560.890  0.500  0.856003  68.6167  114.599  48.6881
  11573.508  11573.510  0.500  0.855162  67.7054  113.123  48.1016
  11586.314  11586.290  0.500  0.853740  67.5485  112.93  48.0877
  11599.253  11599.250  0.500  0.851276  67.3181  112.592  48.0623
  11612.380  11612.380  0.500  0.847827  67.1306  112.34  48.1202
  11625.720  11625.680  0.500  0.844655  66.8795  111.973  48.1155
  11639.167  11639.150  0.500  0.841912  66.7206  111.769  48.1595
  11652.841  11652.800  0.500  0.839676  66.4443  111.374  48.0967
  11666.648  11666.610  0.500  0.837535  66.2312  111.075  48.0704
  11680.619  11680.600  0.500  0.835158  66.0074  110.756  48.0464
  11694.784  11694.760  0.500  0.832177  65.7698  110.42  48.044
  11709.098  11709.090  0.500  0.829103  65.565  110.14  48.0698
  11723.597  11723.590  0.500  0.825961  65.3066  109.755  48.0524
  11738.306  11738.260  0.500  0.823409  65.0382  109.369  48.0055
  11753.131  11753.100  0.500  0.821295  64.7879  109.024  47.9556
  11768.156  11768.120  0.500  0.819196  64.5441  108.665  47.8979
  11783.342  11783.300  0.500  0.816941  64.3297  108.365  47.8734
  11798.682  11798.660  0.500  0.814449  64.0904  108.016  47.8386
  11814.233  11814.190  0.500  0.811448  63.8196  107.627  47.8096
  11829.917  11829.890  0.500  0.808200  63.328  106.855  47.6208
  11845.795  11845.760  0.500  0.805273  63.3708  106.989  47.8203
  11861.834  11861.810  0.500  0.802630  62.989  106.407  47.6863
  11878.057  11878.020  0.500  0.800127  62.8445  106.222  47.7228
  11894.449  11894.410  0.500  0.797534  62.5994  105.877  47.6913
  11910.998  11910.970  0.500  0.794600  62.3371  105.502  47.662
  11927.749  11927.700  0.500  0.791662  62.0905  105.147  47.6412
  11944.647  11944.600  0.500  0.788608  61.8348  104.769  47.6152
  11955.997  11955.960  0.500  0.786840  61.6571  104.515  47.5839