Folder: webxdiviewer/xdidata/Hf

Note: xdidata/README.md
# bmm-standards
A pretty webpage for BMM's collection of common XAFS materials

[BMM's common materials collection](./BMM-standards.html)

Plotting of the data will happen soon.

Periodic table adapted from [some guy named Daniel](https://codepen.io/gooseofmusic/pen/PjKdNQ)

[This](https://www.coderstool.com/scss-to-css) is a helpful tool for
dealing with Sassy CSS.

File: Hf-L3-HafniumOxide.xdi
# XDI/1.0 BlueSky/1.10.0 BMM/2023-1.0-py310-tiled
# Beamline.name: BMM (06BM) -- Beamline for Materials Measurement (NIST)
# Beamline.xray_source: NSLS-II three-pole wiggler
# Beamline.collimation: paraboloid mirror, 5 nm Rh on 30 nm Pt
# Beamline.focusing: not in use
# Beamline.harmonic_rejection: flat mirror, Pt stripe, pitch = 7.0 mrad relative to beam
# Beamline.software: Bluesky 1.10.0, Ophyd 1.7.0, DataBroker 2.0.0b13, Python 3.10.8, 2023-1.0-py310-tiled
# Detector.I0: 10 cm N2
# Detector.I1: 25 cm N2
# Detector.I2: 25 cm N2
# Element.symbol: Hf
# Element.edge: L3
# Element.reference: Hf
# Element.reference_material: HfO2
# Facility.name: NSLS-II
# Facility.energy: 3.0
# Facility.current: 399.3
# Facility.mode: top-off
# Facility.GUP: 301027
# Facility.SAF: 310583
# Facility.cycle: 2023-2
# Mono.name: Si(111)
# Mono.d_spacing: 3.13519
# Mono.encoder_resolution: 0.0000050 deg/ct
# Mono.angle_offset: 16.0754 deg
# Mono.scan_mode: pseudo channel cut
# Mono.scan_type: step
# Mono.direction: forward in energy
# Sample.name: HfO2
# Sample.prep: PEG pellet
# Sample.x: 109.138 mm
# Sample.y: 153.150 mm
# Sample.SDD_position: 205.000 mm
# Scan.experimenters: Bruce Ravel
# Scan.edge_energy: 9560.7
# Scan.start_time: 2023-05-28T16:44:06
# Scan.end_time: 2023-05-28T16:53:12
# Scan.transient_id: 78847
# Scan.uid: b54d7538-60e3-40ba-a7f1-1cbbecca431b
# Scan.plot_hint: ln(It/Ir)  --  ln($6/$7)
# Column.1: energy eV
# Column.2: requested_energy eV
# Column.3: measurement_time seconds
# Column.4: xmu
# Column.5: I0 nA
# Column.6: It nA
# Column.7: Ir nA
# ///////////
# sample courtesy Martin Stennett, University of Sheffield
# -----------
# energy  requested_energy  measurement_time  xmu  I0  It  Ir
  9360.688  9360.700  0.500  1.629817  109.133  158.508  31.0622
  9390.727  9390.700  0.500  1.615382  109.048  158.842  31.5802
  9420.734  9420.700  0.500  1.601184  108.494  158.447  31.9519
  9450.733  9450.700  0.500  1.587599  107.98  158.176  32.3337
  9480.751  9480.700  0.500  1.575202  107.455  157.815  32.6623
  9510.717  9510.700  0.500  1.566944  106.953  157.508  32.8691
  9532.695  9532.700  0.500  1.575323  106.546  157.213  32.5338
  9538.678  9538.700  0.500  1.586908  106.433  157.122  32.1405
  9544.688  9544.700  0.500  1.612917  106.324  157.04  31.2989
  9550.734  9550.700  0.500  1.681332  106.208  156.976  29.2173
  9551.569  9551.600  0.500  1.698297  106.164  156.903  28.7124
  9552.467  9552.500  0.500  1.721093  106.165  156.905  28.0656
  9553.366  9553.400  0.500  1.748910  106.122  156.885  27.2922
  9554.268  9554.300  0.500  1.783119  106.119  156.887  26.3747
  9555.171  9555.200  0.500  1.827791  106.096  156.869  25.2195
  9556.070  9556.100  0.500  1.886583  106.078  156.854  23.7773
  9556.981  9557.000  0.500  1.965391  106.052  156.809  21.9691
  9557.888  9557.900  0.500  2.072208  106.014  156.779  19.7396
  9558.787  9558.800  0.500  2.220717  105.979  156.725  17.0095
  9559.711  9559.700  0.500  2.443506  105.961  156.705  13.6108
  9560.567  9560.600  0.500  2.739871  105.935  156.68  10.1182
  9561.495  9561.500  0.500  3.154613  105.877  156.646  6.681715
  9562.375  9562.400  0.500  3.613496  105.808  156.528  4.219587
  9563.299  9563.300  0.500  4.051022  106.052  156.932  2.731332
  9564.195  9564.200  0.500  4.323260  106.042  156.913  2.080127
  9565.096  9565.100  0.500  4.453488  106.053  156.959  1.826673
  9566.009  9566.000  0.500  4.434381  106.037  156.938  1.861661
  9566.906  9566.900  0.500  4.230030  106.007  156.897  2.283153
  9567.799  9567.800  0.500  3.894316  106.005  156.906  3.194190
  9568.704  9568.700  0.500  3.533894  105.959  156.863  4.578980
  9569.610  9569.600  0.500  3.240106  105.975  156.887  6.143653
  9570.492  9570.500  0.500  3.013488  105.923  156.833  7.703667
  9571.394  9571.400  0.500  2.841932  105.897  156.8  9.143449
  9572.300  9572.300  0.500  2.722272  105.909  156.825  10.3074
  9573.198  9573.200  0.500  2.641325  105.861  156.765  11.1722
  9574.104  9574.100  0.500  2.581897  105.828  156.761  11.8559
  9575.007  9575.000  0.500  2.536989  105.83  156.736  12.3985
  9575.906  9575.900  0.500  2.505488  105.794  156.695  12.7919
  9576.797  9576.800  0.500  2.483991  105.771  156.671  13.0679
  9577.704  9577.700  0.500  2.470373  105.777  156.706  13.25
  9578.599  9578.600  0.500  2.463847  105.741  156.65  13.332
  9579.483  9579.500  0.500  2.461994  105.696  156.619  13.3541
  9580.402  9580.400  0.500  2.460968  105.689  156.62  13.3679
  9581.310  9581.300  0.500  2.457265  105.655  156.582  13.4142
  9582.198  9582.200  0.500  2.449957  105.65  156.581  13.5125
  9583.106  9583.100  0.500  2.439210  105.619  156.555  13.6563
  9584.003  9584.000  0.500  2.427358  105.603  156.54  13.8178
  9584.903  9584.900  0.500  2.417116  105.549  156.476  13.9543
  9585.689  9585.700  0.500  2.411201  105.582  156.539  14.0427
  9588.729  9588.710  0.500  2.411585  105.464  156.392  14.0242
  9591.911  9591.900  0.500  2.442572  105.43  156.388  13.5959
  9595.265  9595.260  0.500  2.484963  105.363  156.321  13.026
  9598.802  9598.780  0.500  2.542785  105.299  156.299  12.2924
  9602.484  9602.480  0.500  2.617229  105.238  156.244  11.4066
  9606.368  9606.350  0.500  2.673535  105.148  156.164  10.7766
  9610.403  9610.400  0.500  2.671494  105.07  156.103  10.7944
  9614.622  9614.610  0.500  2.625659  104.983  156.035  11.2957
  9618.999  9618.990  0.500  2.566336  104.816  155.825  11.9699
  9623.553  9623.550  0.500  2.517645  104.8  155.873  12.5711
  9628.280  9628.280  0.500  2.492843  104.672  155.752  12.8767
  9633.184  9633.180  0.500  2.482979  104.641  155.737  13.0031
  9638.261  9638.250  0.500  2.490025  104.514  155.63  12.9029
  9643.497  9643.490  0.500  2.504229  104.424  155.585  12.7173
  9648.919  9648.910  0.500  2.515554  104.175  155.293  12.5505
  9654.488  9654.490  0.500  2.518757  104.203  155.397  12.5188
  9660.262  9660.250  0.500  2.522165  104.123  155.339  12.4715
  9666.192  9666.180  0.500  2.540388  103.983  155.208  12.236
  9672.295  9672.280  0.500  2.559928  103.832  155.055  11.9874
  9678.559  9678.550  0.500  2.567204  103.721  154.989  11.8954
  9684.998  9684.990  0.500  2.550594  103.606  154.885  12.0865
  9691.613  9691.600  0.500  2.521055  103.524  154.866  12.4473
  9698.411  9698.390  0.500  2.496372  103.361  154.7  12.7447
  9705.374  9705.350  0.500  2.487531  103.225  154.599  12.8495
  9712.477  9712.470  0.500  2.486563  103.134  154.55  12.8579
  9719.787  9719.770  0.500  2.493886  102.986  154.417  12.7531
  9727.260  9727.250  0.500  2.502754  102.824  154.27  12.6285
  9734.908  9734.890  0.500  2.502678  102.673  154.139  12.6187
  9742.712  9742.700  0.500  2.494135  102.573  154.107  12.7243
  9750.705  9750.690  0.500  2.492106  102.608  154.246  12.7616
  9758.848  9758.850  0.500  2.490807  102.507  154.184  12.7731
  9767.198  9767.170  0.500  2.489606  102.328  154.028  12.7755
  9775.683  9775.670  0.500  2.487186  101.946  153.549  12.7666
  9784.364  9784.350  0.500  2.482032  100.361  151.256  12.641
  9793.211  9793.190  0.500  2.472023  100.407  151.444  12.784
  9802.207  9802.200  0.500  2.463704  101.528  153.226  13.0425
  9811.403  9811.390  0.500  2.458027  101.584  153.447  13.1357
  9820.784  9820.750  0.500  2.454424  101.041  152.737  13.122
  9830.274  9830.270  0.500  2.451631  100.951  152.716  13.1569
  9839.997  9839.970  0.500  2.450777  100.983  152.888  13.183
  9849.866  9849.850  0.500  2.447599  100.783  152.7  13.2087
  9859.893  9859.890  0.500  2.442163  100.599  152.509  13.2641
  9870.119  9870.100  0.500  2.435087  100.412  152.368  13.3459
  9880.496  9880.490  0.500  2.428959  100.154  152.075  13.4021
  9891.061  9891.050  0.500  2.425034  99.9554  151.907  13.44
  9901.798  9901.780  0.500  2.419687  99.7584  151.743  13.4974
  9912.694  9912.680  0.500  2.412430  99.5399  151.559  13.5793
  9923.777  9923.750  0.500  2.406609  99.313  151.307  13.6359
  9934.983  9934.990  0.500  2.398441  99.0152  150.995  13.7193
  9946.433  9946.410  0.500  2.391406  98.9076  150.968  13.8137
  9958.005  9957.990  0.500  2.386123  98.6212  150.659  13.8584
  9969.763  9969.750  0.500  2.382801  96.5816  147.672  13.6289
  9981.705  9981.680  0.500  2.378148  98.1522  150.203  13.9271
  9993.805  9993.780  0.500  2.371234  97.929  150.001  14.0049
  10006.061  10006.050  0.500  2.361746  97.8209  149.954  14.134
  10018.522  10018.490  0.500  2.354288  97.4624  149.542  14.2007
  10031.132  10031.110  0.500  2.348701  97.2255  149.317  14.2588
  10043.914  10043.890  0.500  2.344226  97.068  149.22  14.3134
  10056.886  10056.850  0.500  2.338529  96.7854  148.914  14.3657
  10070.003  10069.980  0.500  2.329559  96.5184  148.669  14.4712
  10083.313  10083.280  0.500  2.319641  96.2468  148.358  14.585
  10096.774  10096.750  0.500  2.312312  95.9481  148.059  14.6626
  10110.431  10110.400  0.500  2.306155  95.6762  147.758  14.7231
  10124.240  10124.210  0.500  2.301123  95.3982  147.49  14.7705
  10138.240  10138.200  0.500  2.294872  95.1104  147.19  14.833
  10152.395  10152.360  0.500  2.285799  94.8345  146.906  14.9393
  10166.729  10166.690  0.500  2.276944  94.4958  146.526  15.0332
  10181.221  10181.190  0.500  2.268408  94.2401  146.279  15.1365
  10195.891  10195.860  0.500  2.260600  93.6594  145.511  15.1751
  10210.730  10210.700  0.500  2.255028  93.6207  145.595  15.2686
  10225.740  10225.720  0.500  2.247798  93.282  145.211  15.3389
  10240.917  10240.900  0.500  2.239249  92.9724  144.894  15.4368
  10256.282  10256.260  0.500  2.229646  92.7056  144.628  15.5571
  10271.813  10271.790  0.500  2.220622  92.3711  144.244  15.6564
  10287.520  10287.490  0.500  2.212768  92.0612  143.907  15.7431
  10303.395  10303.360  0.500  2.205225  91.7339  143.544  15.8222
  10319.445  10319.410  0.500  2.197722  91.3907  143.165  15.8993
  10335.648  10335.620  0.500  2.189736  91.0675  142.784  15.9842
  10352.042  10352.010  0.500  2.180729  90.7341  142.4  16.0853
  10368.597  10368.570  0.500  2.171135  90.3731  141.99  16.1937
  10385.336  10385.300  0.500  2.161736  89.9907  141.554  16.2964
  10402.229  10402.200  0.500  2.153976  89.6363  141.157  16.3774
  10413.583  10413.560  0.500  2.149029  89.7489  141.441  16.4916