Folder: webxdiviewer/xdidata/Ho

Note: xdidata/README.md
# bmm-standards
A pretty webpage for BMM's collection of common XAFS materials

[BMM's common materials collection](./BMM-standards.html)

Plotting of the data will happen soon.

Periodic table adapted from [some guy named Daniel](https://codepen.io/gooseofmusic/pen/PjKdNQ)

[This](https://www.coderstool.com/scss-to-css) is a helpful tool for
dealing with Sassy CSS.

File: Ho-L1-Ho2TiO5.xdi
# XDI/1.0 BlueSky/1.10.0 BMM/2023-1.0-py310-tiled
# Beamline.name: BMM (06BM) -- Beamline for Materials Measurement (NIST)
# Beamline.xray_source: NSLS-II three-pole wiggler
# Beamline.collimation: paraboloid mirror, 5 nm Rh on 30 nm Pt
# Beamline.focusing: not in use
# Beamline.harmonic_rejection: flat mirror, Pt stripe, pitch = 7.0 mrad relative to beam
# Beamline.software: Bluesky 1.10.0, Ophyd 1.7.0, DataBroker 2.0.0b13, Python 3.10.8, 2023-1.0-py310-tiled
# Detector.I0: 10 cm N2
# Detector.I1: 25 cm N2
# Detector.I2: 25 cm N2
# Element.symbol: Ho
# Element.edge: L1
# Element.reference: Ho
# Element.reference_material: Ho2O3
# Facility.name: NSLS-II
# Facility.energy: 3.0
# Facility.current: 399.5
# Facility.mode: top-off
# Facility.GUP: 123456
# Facility.SAF: 301027
# Facility.cycle: 2023-2
# Mono.name: Si(111)
# Mono.d_spacing: 3.13519
# Mono.encoder_resolution: 0.0000050 deg/ct
# Mono.angle_offset: 16.0754 deg
# Mono.scan_mode: pseudo channel cut
# Mono.scan_type: step
# Mono.direction: forward in energy
# Sample.name: Ho2TiO5
# Sample.prep: Powder in PEG pellet
# Sample.x: 149.848 mm
# Sample.y: 114.690 mm
# Sample.SDD_position: 205.000 mm
# Scan.experimenters: Bruce Ravel
# Scan.edge_energy: 9394.2
# Scan.start_time: 2023-05-08T22:30:10
# Scan.end_time: 2023-05-08T22:36:04
# Scan.transient_id: 75678
# Scan.uid: 7e0c8198-df56-46ce-a97c-caa9f9462e7e
# Scan.plot_hint: ln(I0/It)  --  ln($5/$6)
# Column.1: energy eV
# Column.2: requested_energy eV
# Column.3: measurement_time seconds
# Column.4: xmu
# Column.5: I0 nA
# Column.6: It nA
# Column.7: Ir nA
# ///////////
# sample courtesy Martin Stennett, University of Sheffield
# -----------
# energy  requested_energy  measurement_time  xmu  I0  It  Ir
  9194.228  9194.200  0.500  0.440356  111.625  71.8647  26.4353
  9214.228  9214.200  0.500  0.434699  111.159  71.9709  26.6451
  9234.259  9234.200  0.500  0.429192  110.771  72.1156  26.8242
  9254.249  9254.200  0.500  0.423711  110.385  72.2595  27.024
  9274.232  9274.200  0.500  0.418577  109.974  72.3606  27.1944
  9294.181  9294.200  0.500  0.413138  109.618  72.5198  27.393
  9314.207  9314.200  0.500  0.408061  109.503  72.8128  27.6303
  9334.208  9334.200  0.500  0.402844  109.09  72.9174  27.8167
  9354.207  9354.200  0.500  0.397785  108.688  73.0175  27.9998
  9366.184  9366.200  0.500  0.394829  108.822  73.3236  28.1959
  9370.182  9370.200  0.500  0.393862  108.695  73.3088  28.2085
  9374.172  9374.200  0.500  0.393049  108.584  73.2934  28.2211
  9378.177  9378.200  0.500  0.392016  108.484  73.3017  28.2417
  9382.171  9382.200  0.500  0.391111  108.381  73.2986  28.2503
  9384.670  9384.700  0.500  0.390704  108.295  73.2702  28.2456
  9385.673  9385.700  0.500  0.390415  108.247  73.2589  28.2417
  9386.673  9386.700  0.500  0.390312  108.202  73.2358  28.2334
  9387.673  9387.700  0.500  0.390231  108.162  73.2152  28.2263
  9388.673  9388.700  0.500  0.390087  108.116  73.1944  28.2152
  9389.670  9389.700  0.500  0.389905  108.079  73.1828  28.2049
  9390.682  9390.700  0.500  0.389834  108.034  73.1576  28.1935
  9391.678  9391.700  0.500  0.389674  108.007  73.1506  28.1866
  9392.683  9392.700  0.500  0.389782  107.973  73.1198  28.1599
  9393.688  9393.700  0.500  0.389906  107.938  73.087  28.1321
  9394.690  9394.700  0.500  0.390142  107.91  73.0509  28.0882
  9395.687  9395.700  0.500  0.390623  107.872  72.9902  28.0228
  9396.682  9396.700  0.500  0.391471  107.842  72.9075  27.9319
  9397.684  9397.700  0.500  0.392270  107.811  72.8284  27.8377
  9398.690  9398.700  0.500  0.393102  107.778  72.7456  27.7451
  9399.700  9399.700  0.500  0.393977  107.751  72.6638  27.6568
  9400.703  9400.700  0.500  0.394750  107.725  72.5903  27.57
  9401.698  9401.700  0.500  0.395425  107.694  72.5203  27.4833
  9402.693  9402.700  0.500  0.396312  107.672  72.4411  27.3951
  9403.689  9403.700  0.500  0.397230  107.641  72.3539  27.2951
  9404.693  9404.700  0.500  0.398258  107.615  72.2625  27.1836
  9405.704  9405.700  0.500  0.399517  107.588  72.1529  27.0552
  9406.701  9406.700  0.500  0.401216  107.564  72.0146  26.91
  9407.693  9407.700  0.500  0.402629  107.533  71.8924  26.7563
  9408.694  9408.700  0.500  0.404310  107.506  71.7532  26.5971
  9409.691  9409.700  0.500  0.405731  107.485  71.6373  26.4711
  9410.700  9410.700  0.500  0.406799  107.459  71.5442  26.3912
  9411.709  9411.700  0.500  0.406956  107.44  71.5202  26.3774
  9412.703  9412.700  0.500  0.406676  107.413  71.5223  26.3919
  9413.697  9413.700  0.500  0.405877  107.4  71.5703  26.4356
  9414.691  9414.700  0.500  0.405137  107.371  71.6041  26.4647
  9415.697  9415.700  0.500  0.404506  107.345  71.6318  26.4804
  9416.703  9416.700  0.500  0.403928  107.323  71.6589  26.4877
  9417.702  9417.700  0.500  0.403358  107.295  71.6809  26.4912
  9418.705  9418.700  0.500  0.402802  107.271  71.705  26.4991
  9420.202  9420.190  0.500  0.402020  107.236  71.7375  26.5195
  9422.220  9422.210  0.500  0.401009  107.195  71.7823  26.5691
  9424.339  9424.320  0.500  0.400226  107.154  71.8115  26.6503
  9426.513  9426.500  0.500  0.399421  107.121  71.8469  26.7536
  9428.772  9428.760  0.500  0.397817  107.085  71.9379  26.8822
  9431.093  9431.090  0.500  0.396234  107.04  72.0219  27.0045
  9433.512  9433.500  0.500  0.394772  106.99  72.0937  27.0967
  9435.994  9435.980  0.500  0.393639  106.688  71.9718  27.0931
  9438.546  9438.540  0.500  0.392790  106.852  72.143  27.184
  9441.192  9441.180  0.500  0.392118  106.833  72.1791  27.2075
  9443.908  9443.900  0.500  0.391979  106.793  72.1617  27.2037
  9446.703  9446.690  0.500  0.391820  106.739  72.1368  27.194
  9449.558  9449.550  0.500  0.391827  106.691  72.1037  27.1789
  9452.503  9452.490  0.500  0.391601  106.634  72.0818  27.1583
  9455.512  9455.510  0.500  0.391500  106.582  72.0542  27.1305
  9458.619  9458.610  0.500  0.390759  106.52  72.0653  27.1129
  9461.790  9461.780  0.500  0.390109  106.468  72.0768  27.0937
  9465.033  9465.030  0.500  0.389470  106.407  72.0816  27.0816
  9468.364  9468.350  0.500  0.388614  106.334  72.0942  27.0963
  9471.747  9471.750  0.500  0.387783  106.279  72.1166  27.1393
  9475.237  9475.230  0.500  0.386573  106.204  72.1527  27.2107
  9478.788  9478.780  0.500  0.385525  106.13  72.178  27.287
  9482.415  9482.410  0.500  0.384534  106.061  72.203  27.3511
  9486.119  9486.110  0.500  0.383327  105.989  72.241  27.4025
  9489.900  9489.890  0.500  0.382346  105.92  72.2649  27.4338
  9493.754  9493.750  0.500  0.381329  105.84  72.2838  27.4584
  9497.693  9497.680  0.500  0.380335  105.761  72.3013  27.4953
  9501.706  9501.690  0.500  0.379180  105.681  72.3308  27.5472
  9505.788  9505.780  0.500  0.378111  105.602  72.3536  27.5999
  9509.948  9509.940  0.500  0.376825  105.52  72.3908  27.6533
  9514.190  9514.180  0.500  0.375794  105.44  72.4099  27.6994
  9518.514  9518.490  0.500  0.374811  105.354  72.4223  27.7334
  9522.893  9522.880  0.500  0.373853  105.271  72.4344  27.7532
  9527.358  9527.350  0.500  0.373164  105.185  72.4255  27.7608
  9531.895  9531.890  0.500  0.372071  105.095  72.4422  27.7682
  9536.518  9536.510  0.500  0.370967  105.001  72.4576  27.7868
  9541.224  9541.200  0.500  0.369878  104.909  72.4728  27.8211
[...]
  9555.774  9555.750  0.500  0.365915  104.62  72.5604  27.9685
  9560.772  9560.750  0.500  0.364502  104.523  72.5955  28.0427
  9565.831  9565.820  0.500  0.363338  104.429  72.6147  28.1059
  9570.986  9570.970  0.500  0.362030  104.323  72.6363  28.1519
  9576.215  9576.200  0.500  0.360791  104.22  72.6541  28.185
  9581.520  9581.510  0.500  0.359633  104.113  72.664  28.218
  9586.907  9586.890  0.500  0.358376  104.017  72.6882  28.2602
  9592.364  9592.350  0.500  0.357067  103.908  72.7071  28.3091
  9597.894  9597.880  0.500  0.355719  103.8  72.7293  28.3605
  9603.507  9603.490  0.500  0.354272  104.074  73.027  28.5174
  9609.187  9609.170  0.500  0.353002  103.954  73.0353  28.5702
  9614.945  9614.940  0.500  0.351561  103.836  73.0575  28.6228
  9620.786  9620.770  0.500  0.350156  103.692  73.0588  28.6553
  9626.699  9626.690  0.500  0.348780  103.572  73.075  28.6906
  9632.687  9632.680  0.500  0.347641  103.45  73.0721  28.7179
  9638.763  9638.750  0.500  0.346062  103.324  73.0981  28.7637
  9644.899  9644.890  0.500  0.344601  103.191  73.1113  28.8072
  9651.127  9651.110  0.500  0.343250  103.045  73.1065  28.854
  9657.416  9657.400  0.500  0.341620  102.938  73.1493  28.9153
  9663.786  9663.770  0.500  0.340133  102.789  73.1526  28.9686
  9670.238  9670.220  0.500  0.338711  102.624  73.139  29.014
  9676.775  9676.750  0.500  0.337080  102.469  73.1477  29.0701
  9683.370  9683.350  0.500  0.335734  102.32  73.14  29.1142
  9690.059  9690.020  0.500  0.334007  102.174  73.1616  29.1664
  9696.749  9696.770  0.500  0.332400  102.011  73.1626  29.2085
  9703.592  9703.600  0.500  0.330789  101.849  73.1641  29.254
  9710.521  9710.510  0.500  0.329315  100.892  72.583  29.0732
  9717.502  9717.490  0.500  0.327616  101.596  73.2142  29.3761
  9724.566  9724.550  0.500  0.325960  101.427  73.2136  29.4198
  9731.694  9731.680  0.500  0.324351  101.273  73.2201  29.4719
  9738.906  9738.890  0.500  0.322754  101.119  73.2257  29.519
  9746.195  9746.180  0.500  0.321223  100.962  73.2239  29.5673
  9753.549  9753.540  0.500  0.319629  100.788  73.2145  29.6156
  9760.992  9760.980  0.500  0.317936  100.617  73.214  29.659
  9768.505  9768.490  0.500  0.316174  100.432  73.2081  29.7079
  9776.096  9776.080  0.500  0.314433  100.296  73.2364  29.7734
  9783.756  9783.750  0.500  0.312613  98.5892  72.1212  29.3728
  9791.512  9791.490  0.500  0.310801  99.047  72.5875  29.6169
  9799.326  9799.310  0.500  0.309268  99.7948  73.2477  29.9449
  9807.223  9807.210  0.500  0.307319  99.6774  73.3043  30.023
  9815.192  9815.180  0.500  0.305632  99.4581  73.2666  30.0666
  9823.257  9823.230  0.500  0.303720  99.2734  73.2705  30.1192
  9831.369  9831.350  0.500  0.301975  99.1006  73.2707  30.1755
  9839.570  9839.550  0.500  0.300148  98.9334  73.2808  30.2267
  9847.853  9847.830  0.500  0.298325  98.7447  73.2745  30.2768
  9856.196  9856.180  0.500  0.296652  98.5936  73.2849  30.3365
  9864.629  9864.610  0.500  0.294815  98.4041  73.2785  30.3918
  9873.135  9873.110  0.500  0.292928  98.2235  73.2822  30.453
  9881.729  9881.690  0.500  0.291003  95.7802  71.597  29.8124
  9890.376  9890.350  0.500  0.289116  97.8191  73.2592  30.567
  9899.115  9899.090  0.500  0.287259  97.6306  73.2539  30.624
  9907.916  9907.900  0.500  0.285340  97.432  73.2453  30.6778
  9916.805  9916.780  0.500  0.283303  97.2377  73.2484  30.7373
  9925.775  9925.740  0.500  0.281435  97.0171  73.2188  30.7806
  9934.804  9934.780  0.500  0.279514  96.9115  73.2797  30.8637
  9939.352  9939.330  0.500  0.278614  96.8112  73.2698  30.889

File: Ho-L1-HolmiumOxide.xdi
# XDI/1.0 BlueSky/1.10.0 BMM/2023-1.0-py310-tiled
# Beamline.name: BMM (06BM) -- Beamline for Materials Measurement (NIST)
# Beamline.xray_source: NSLS-II three-pole wiggler
# Beamline.collimation: paraboloid mirror, 5 nm Rh on 30 nm Pt
# Beamline.focusing: not in use
# Beamline.harmonic_rejection: flat mirror, Pt stripe, pitch = 7.0 mrad relative to beam
# Beamline.software: Bluesky 1.10.0, Ophyd 1.7.0, DataBroker 2.0.0b13, Python 3.10.8, 2023-1.0-py310-tiled
# Detector.I0: 10 cm N2
# Detector.I1: 25 cm N2
# Detector.I2: 25 cm N2
# Element.symbol: Ho
# Element.edge: L1
# Element.reference: Ho
# Element.reference_material: Ho2O3
# Facility.name: NSLS-II
# Facility.energy: 3.0
# Facility.current: 400.3
# Facility.mode: top-off
# Facility.GUP: 301027
# Facility.SAF: 310583
# Facility.cycle: 2023-2
# Mono.name: Si(111)
# Mono.d_spacing: 3.13519
# Mono.encoder_resolution: 0.0000050 deg/ct
# Mono.angle_offset: 16.0754 deg
# Mono.scan_mode: pseudo channel cut
# Mono.scan_type: step
# Mono.direction: forward in energy
# Sample.name: Ho2O3
# Sample.prep: PEG pellet
# Sample.x: 109.138 mm
# Sample.y: 153.150 mm
# Sample.SDD_position: 205.000 mm
# Scan.experimenters: Bruce Ravel
# Scan.edge_energy: 9394.2
# Scan.start_time: 2023-05-28T16:33:09
# Scan.end_time: 2023-05-28T16:41:12
# Scan.transient_id: 78840
# Scan.uid: e87cc0de-36a7-4f5a-bb9b-7a62903ff800
# Scan.plot_hint: ln(It/Ir)  --  ln($6/$7)
# Column.1: energy eV
# Column.2: requested_energy eV
# Column.3: measurement_time seconds
# Column.4: xmu
# Column.5: I0 nA
# Column.6: It nA
# Column.7: Ir nA
# ///////////
# sample courtesy Martin Stennett, University of Sheffield
# -----------
# energy  requested_energy  measurement_time  xmu  I0  It  Ir
  9194.213  9194.200  0.500  1.146384  112.773  161.076  51.1873
  9224.201  9224.200  0.500  1.136086  112.177  160.726  51.6049
  9254.220  9254.200  0.500  1.127073  111.631  160.439  51.9791
  9284.246  9284.200  0.500  1.118124  111.115  160.18  52.3618
  9314.237  9314.200  0.500  1.109713  110.67  159.974  52.736
  9344.238  9344.200  0.500  1.100485  110.115  159.669  53.1233
  9366.188  9366.200  0.500  1.094180  109.75  159.452  53.3866
  9372.182  9372.200  0.500  1.092913  109.582  159.297  53.4024
  9378.185  9378.200  0.500  1.091725  109.493  159.271  53.4571
  9384.188  9384.200  0.500  1.090927  109.366  159.173  53.4669
  9385.065  9385.100  0.500  1.090837  109.325  159.127  53.4563
  9385.974  9386.000  0.500  1.090761  109.345  159.187  53.4806
  9386.878  9386.900  0.500  1.090734  109.283  159.109  53.4559
  9387.783  9387.800  0.500  1.090678  109.277  159.106  53.4579
  9388.692  9388.700  0.500  1.090798  109.256  159.082  53.4433
  9389.582  9389.600  0.500  1.090741  109.223  159.034  53.4303
  9390.484  9390.500  0.500  1.090841  109.184  159.011  53.4171
  9391.389  9391.400  0.500  1.090954  109.167  159.015  53.4126
  9392.284  9392.300  0.500  1.091082  109.135  158.972  53.3912
  9393.193  9393.200  0.500  1.091383  109.128  158.963  53.372
  9394.092  9394.100  0.500  1.091893  109.079  158.919  53.3303
  9395.021  9395.000  0.500  1.092625  109.082  158.918  53.2908
  9395.901  9395.900  0.500  1.093809  109.055  158.892  53.2191
  9396.769  9396.800  0.500  1.095466  108.986  158.821  53.1072
  9397.733  9397.700  0.500  1.097735  109.347  159.352  53.1639
  9398.625  9398.600  0.500  1.099711  109.356  159.368  53.0644
  9399.513  9399.500  0.500  1.101592  109.33  159.341  52.9557
  9400.409  9400.400  0.500  1.103504  109.329  159.346  52.8562
  9401.305  9401.300  0.500  1.105438  109.272  159.314  52.7434
  9402.194  9402.200  0.500  1.107354  109.251  159.266  52.6266
  9403.105  9403.100  0.500  1.109340  109.225  159.243  52.5145
  9404.014  9404.000  0.500  1.111535  109.21  159.243  52.3995
  9404.907  9404.900  0.500  1.113950  109.178  159.211  52.2624
  9405.807  9405.800  0.500  1.116582  109.146  159.153  52.1063
  9406.708  9406.700  0.500  1.119626  109.129  159.183  51.9577
  9407.602  9407.600  0.500  1.123018  109.109  159.16  51.7742
  9408.495  9408.500  0.500  1.126811  109.088  159.13  51.5685
  9409.393  9409.400  0.500  1.130406  109.061  159.114  51.3782
  9410.291  9410.300  0.500  1.133242  109.058  159.109  51.2311
  9411.208  9411.200  0.500  1.135041  108.992  159.058  51.1228
  9412.106  9412.100  0.500  1.135492  108.999  159.068  51.1027
  9413.005  9413.000  0.500  1.135020  108.961  158.998  51.1044
  9413.907  9413.900  0.500  1.134149  108.948  158.997  51.1487
  9414.806  9414.800  0.500  1.133322  108.913  158.981  51.1859
  9415.697  9415.700  0.500  1.132846  108.913  158.996  51.2151
  9416.596  9416.600  0.500  1.132660  108.914  159.006  51.2277
  9417.495  9417.500  0.500  1.132755  108.815  158.88  51.1823
  9418.399  9418.400  0.500  1.132881  108.847  158.927  51.1909
  9419.199  9419.200  0.500  1.132914  108.796  158.865  51.1694
  9422.224  9422.210  0.500  1.131827  108.741  158.847  51.2193
  9425.420  9425.400  0.500  1.127767  108.697  158.825  51.4203
  9428.776  9428.760  0.500  1.122131  108.654  158.819  51.709
  9432.287  9432.280  0.500  1.116992  108.562  158.72  51.9433
  9436.001  9435.980  0.500  1.113783  108.447  158.615  52.0755
  9439.857  9439.850  0.500  1.112289  108.415  158.638  52.1611
  9443.912  9443.900  0.500  1.111702  108.368  158.601  52.1796
  9448.117  9448.110  0.500  1.111599  108.268  158.535  52.1631
  9452.499  9452.490  0.500  1.111854  108.18  158.472  52.1292
  9457.059  9457.050  0.500  1.112782  108.077  158.374  52.0485
  9461.794  9461.780  0.500  1.113947  108.005  158.357  51.9825
  9466.685  9466.680  0.500  1.114360  107.905  158.25  51.9258
  9471.750  9471.750  0.500  1.112913  107.791  158.173  51.9756
  9477.004  9476.990  0.500  1.109443  107.693  158.103  52.1333
  9482.415  9482.410  0.500  1.105895  107.609  158.044  52.2992
  9488.011  9487.990  0.500  1.103653  107.498  157.951  52.3857
  9493.766  9493.750  0.500  1.102303  107.398  157.926  52.4482
  9499.695  9499.680  0.500  1.100449  107.233  157.733  52.4813
  9505.788  9505.780  0.500  1.097830  107.131  157.677  52.6002
  9512.061  9512.050  0.500  1.095401  107.037  157.644  52.7169
  9518.498  9518.490  0.500  1.093338  106.907  157.541  52.7914
  9525.113  9525.100  0.500  1.092119  106.784  157.437  52.821
  9531.910  9531.890  0.500  1.091665  106.66  157.371  52.8227
  9538.870  9538.850  0.500  1.090660  106.54  157.268  52.8412
  9545.986  9545.970  0.500  1.088649  106.43  157.224  52.9328
  9553.291  9553.270  0.500  1.086397  106.243  157.035  52.9883
  9560.752  9560.750  0.500  1.083147  106.143  157.003  53.1499
  9568.404  9568.390  0.500  1.079965  105.967  156.829  53.2603
  9576.219  9576.200  0.500  1.078102  106.164  157.237  53.4983
  9584.205  9584.190  0.500  1.076260  106.08  157.235  53.5965
  9592.356  9592.350  0.500  1.074053  105.882  157.057  53.6539
  9600.700  9600.670  0.500  1.071420  105.758  156.99  53.7723
  9609.179  9609.170  0.500  1.068647  105.616  156.888  53.8867
  9617.865  9617.850  0.500  1.066087  105.205  156.369  53.846
  9626.707  9626.690  0.500  1.064182  105.265  156.597  54.0274
  9635.722  9635.700  0.500  1.062348  104.9  156.194  53.9876
  9644.891  9644.890  0.500  1.060019  104.921  156.333  54.1615
  9654.267  9654.250  0.500  1.057304  104.726  156.169  54.2516
  9663.774  9663.770  0.500  1.054358  104.561  156.045  54.3686
  9673.491  9673.470  0.500  1.051312  104.354  155.861  54.4701
  9683.382  9683.350  0.500  1.048362  104.169  155.711  54.5783
  9693.403  9693.390  0.500  1.045777  103.973  155.554  54.6645
  9703.624  9703.600  0.500  1.043141  103.745  155.361  54.741
  9714.014  9713.990  0.500  1.040209  103.58  155.208  54.8476
  9724.574  9724.550  0.500  1.037312  103.381  155.033  54.9446
  9735.297  9735.280  0.500  1.034652  103.162  154.859  55.029
  9746.200  9746.180  0.500  1.031857  102.947  154.674  55.1173
  9757.267  9757.250  0.500  1.028875  102.737  154.514  55.2246
  9768.497  9768.490  0.500  1.025982  102.495  154.299  55.3075
  9779.918  9779.910  0.500  1.022925  102.246  154.047  55.3863
  9791.499  9791.490  0.500  1.019623  101.836  153.567  55.3964
  9803.266  9803.250  0.500  1.016326  100.303  151.379  54.7874
  9815.200  9815.180  0.500  1.013210  101.604  153.51  55.7319
  9827.305  9827.280  0.500  1.010030  101.36  153.283  55.8269
  9839.562  9839.550  0.500  1.007116  101.116  153.07  55.912
  9852.006  9851.990  0.500  1.004078  100.876  152.859  56.005
  9864.629  9864.610  0.500  1.000885  100.617  152.605  56.0905
  9877.416  9877.390  0.500  0.997426  100.347  152.352  56.1915
  9890.372  9890.350  0.500  0.993974  100.046  152.056  56.2765
  9903.494  9903.480  0.500  0.990554  99.7975  151.806  56.3764
  9916.788  9916.780  0.500  0.987254  99.5341  151.56  56.4709
  9930.272  9930.250  0.500  0.984045  99.1411  151.109  56.4839
  9943.922  9943.900  0.500  0.980764  99.0184  151.089  56.6622
  9957.760  9957.710  0.500  0.977048  98.6342  150.672  56.7161
  9971.745  9971.700  0.500  0.973272  98.5319  150.664  56.9276
  9985.887  9985.860  0.500  0.970091  96.6843  147.995  56.0971
  10000.226  10000.190  0.500  0.966631  95.6872  146.623  55.7697
  10014.732  10014.690  0.500  0.963107  95.8423  147.026  56.1206
  10029.386  10029.360  0.500  0.959585  97.2407  149.317  57.196
  10044.237  10044.200  0.500  0.955910  97.0288  149.154  57.3442
  10059.259  10059.220  0.500  0.952033  96.6925  148.781  57.4228
  10074.433  10074.400  0.500  0.948443  96.3617  148.436  57.4959
  10089.794  10089.760  0.500  0.944871  93.7142  144.524  56.1807
  10105.314  10105.290  0.500  0.941390  95.6928  147.741  57.6317
  10121.012  10120.990  0.500  0.937739  95.3747  147.412  57.7138
  10136.888  10136.860  0.500  0.933916  95.0129  146.992  57.7696
  10152.944  10152.910  0.500  0.929978  94.7073  146.7  57.8822
  10169.146  10169.120  0.500  0.926179  94.3637  146.332  57.9568
  10185.532  10185.510  0.500  0.922499  94.0223  145.979  58.0302
  10202.097  10202.070  0.500  0.918736  93.667  145.59  58.0938
  10218.826  10218.800  0.500  0.914951  93.293  145.178  58.1492
  10235.729  10235.700  0.500  0.911138  93.2069  145.205  58.3821
  10247.088  10247.060  0.500  0.908447  92.9952  144.979  58.4482