Folder: webxdiviewer/xdidata/Ho (part 2)

File: Ho-L3-HolmiumOxide.xdi
# XDI/1.0 BlueSky/1.10.0 BMM/2023-1.0-py310-tiled
# Beamline.name: BMM (06BM) -- Beamline for Materials Measurement (NIST)
# Beamline.xray_source: NSLS-II three-pole wiggler
# Beamline.collimation: paraboloid mirror, 5 nm Rh on 30 nm Pt
# Beamline.focusing: not in use
# Beamline.harmonic_rejection: flat mirror, Pt stripe, pitch = 7.0 mrad relative to beam
# Beamline.software: Bluesky 1.10.0, Ophyd 1.7.0, DataBroker 2.0.0b13, Python 3.10.8, 2023-1.0-py310-tiled
# Detector.I0: 10 cm N2
# Detector.I1: 25 cm N2
# Detector.I2: 25 cm N2
# Element.symbol: Ho
# Element.edge: L3
# Element.reference: Ho
# Element.reference_material: Ho2O3
# Facility.name: NSLS-II
# Facility.energy: 3.0
# Facility.current: 399.7
# Facility.mode: top-off
# Facility.GUP: 301027
# Facility.SAF: 310583
# Facility.cycle: 2023-2
# Mono.name: Si(111)
# Mono.d_spacing: 3.13519
# Mono.encoder_resolution: 0.0000050 deg/ct
# Mono.angle_offset: 16.0754 deg
# Mono.scan_mode: pseudo channel cut
# Mono.scan_type: step
# Mono.direction: forward in energy
# Sample.name: Ho2O3
# Sample.prep: PEG pellet
# Sample.x: 109.138 mm
# Sample.y: 153.150 mm
# Sample.SDD_position: 205.000 mm
# Scan.experimenters: Bruce Ravel
# Scan.edge_energy: 8071.1
# Scan.start_time: 2023-05-28T14:45:16
# Scan.end_time: 2023-05-28T14:53:09
# Scan.transient_id: 78770
# Scan.uid: 7e36ac9f-ec01-4463-a4dc-fbf08421a0ee
# Scan.plot_hint: ln(It/Ir)  --  ln($6/$7)
# Column.1: energy eV
# Column.2: requested_energy eV
# Column.3: measurement_time seconds
# Column.4: xmu
# Column.5: I0 nA
# Column.6: It nA
# Column.7: Ir nA
# ///////////
# sample courtesy Martin Stennett, University of Sheffield
# -----------
# energy  requested_energy  measurement_time  xmu  I0  It  Ir
  7871.098  7871.100  0.500  1.341223  139.991  165.539  43.2926
  7901.165  7901.100  0.500  1.326365  139.496  165.886  44.0329
  7931.108  7931.100  0.500  1.311917  139.232  166.512  44.8423
  7961.183  7961.100  0.500  1.297617  138.917  167.052  45.6356
  7991.118  7991.100  0.500  1.283510  138.541  167.518  46.413
  8021.116  8021.100  0.500  1.270427  138.118  167.918  47.1366
  8043.102  8043.100  0.500  1.262750  137.766  168.162  47.5687
  8049.090  8049.100  0.500  1.262509  137.653  168.192  47.5887
  8055.098  8055.100  0.500  1.264054  137.436  168.109  47.492
  8061.099  8061.100  0.500  1.271803  137.535  168.415  47.211
  8061.977  8062.000  0.500  1.274283  137.736  168.684  47.1693
  8062.873  8062.900  0.500  1.277499  137.995  169.032  47.1148
  8063.774  8063.800  0.500  1.281740  137.982  169.04  46.9176
  8064.679  8064.700  0.500  1.287628  137.935  169.038  46.6417
  8065.594  8065.600  0.500  1.295617  137.914  168.97  46.252
  8066.493  8066.500  0.500  1.304752  137.903  169.003  45.8404
  8067.393  8067.400  0.500  1.313818  137.815  168.919  45.404
  8068.295  8068.300  0.500  1.324296  137.715  168.831  44.9075
  8069.187  8069.200  0.500  1.338408  137.246  168.309  44.1413
  8070.089  8070.100  0.500  1.359242  133.242  163.42  41.9754
  8070.998  8071.000  0.500  1.394575  134.335  164.771  40.853
  8071.901  8071.900  0.500  1.445230  137.999  169.307  39.9044
  8072.793  8072.800  0.500  1.517227  138.083  169.455  37.1647
  8073.694  8073.700  0.500  1.607136  138.037  169.383  33.9547
  8074.601  8074.600  0.500  1.688805  138.011  169.35  31.2857
  8075.497  8075.500  0.500  1.743472  137.948  169.358  29.6228
  8076.387  8076.400  0.500  1.774518  137.871  169.287  28.7052
  8077.297  8077.300  0.500  1.787782  137.737  169.109  28.2973
  8078.204  8078.200  0.500  1.777913  137.414  168.724  28.5128
  8079.106  8079.100  0.500  1.740656  134.478  165.16  28.9699
  8079.992  8080.000  0.500  1.684862  132.915  163.293  30.2859
  8080.894  8080.900  0.500  1.627094  137.646  169.123  33.2327
  8081.808  8081.800  0.500  1.574809  137.997  169.549  35.1046
  8082.700  8082.700  0.500  1.536601  137.966  169.558  36.4738
  8083.592  8083.600  0.500  1.510186  137.934  169.521  37.4419
  8084.492  8084.500  0.500  1.491651  137.892  169.506  38.139
  8085.404  8085.400  0.500  1.478190  137.854  169.461  38.6455
  8086.305  8086.300  0.500  1.468531  137.773  169.388  39.0039
  8087.195  8087.200  0.500  1.460934  137.731  169.411  39.3067
  8088.094  8088.100  0.500  1.455484  137.695  169.388  39.5161
  8089.004  8089.000  0.500  1.451949  137.591  169.292  39.6336
  8089.894  8089.900  0.500  1.450229  137.398  169.08  39.6521
  8090.799  8090.800  0.500  1.450054  136.68  168.197  39.452
  8091.696  8091.700  0.500  1.451311  131.667  162.079  37.9691
  8092.604  8092.600  0.500  1.453469  135.304  166.576  38.9385
  8093.506  8093.500  0.500  1.454757  137.71  169.572  39.5878
  8094.389  8094.400  0.500  1.455141  137.723  169.619  39.5835
  8095.290  8095.300  0.500  1.454355  137.687  169.55  39.5984
  8096.106  8096.100  0.500  1.452721  137.625  169.534  39.6596
  8099.165  8099.110  0.500  1.444576  137.514  169.52  39.9806
  8102.285  8102.300  0.500  1.447569  137.427  169.503  39.8572
  8105.655  8105.660  0.500  1.462221  137.355  169.495  39.2755
  8109.175  8109.180  0.500  1.481556  137.275  169.453  38.514
  8112.880  8112.880  0.500  1.496728  137.231  169.545  37.9545
  8116.753  8116.750  0.500  1.489814  137.158  169.573  38.2241
  8120.796  8120.800  0.500  1.472953  137.077  169.604  38.8814
  8125.002  8125.010  0.500  1.460579  136.993  169.617  39.3685
  8129.390  8129.390  0.500  1.451680  136.922  169.655  39.7292
  8133.951  8133.950  0.500  1.445616  136.816  169.647  39.9691
  8138.684  8138.680  0.500  1.441190  137.198  170.257  40.2907
  8143.581  8143.580  0.500  1.439511  137.098  170.252  40.357
  8148.650  8148.650  0.500  1.441824  137.005  170.286  40.2719
  8153.893  8153.890  0.500  1.446292  136.908  170.325  40.1016
  8159.302  8159.310  0.500  1.448744  136.773  170.322  40.0026
  8164.902  8164.890  0.500  1.447401  136.685  170.357  40.0647
  8170.653  8170.650  0.500  1.444623  136.59  170.408  40.1881
  8176.592  8176.580  0.500  1.441700  136.48  170.44  40.3134
  8182.695  8182.680  0.500  1.438387  136.366  170.461  40.4522
  8188.971  8188.950  0.500  1.435665  136.246  170.496  40.5708
  8195.390  8195.390  0.500  1.430614  136.111  170.523  40.7826
  8202.014  8202.000  0.500  1.422383  135.981  170.542  41.1243
  8208.806  8208.790  0.500  1.415536  135.865  170.552  41.4093
  8215.762  8215.750  0.500  1.415206  135.727  170.641  41.4445
  8222.893  8222.870  0.500  1.415081  135.591  170.602  41.4402
  8230.179  8230.170  0.500  1.415643  135.457  170.65  41.4286
  8237.667  8237.650  0.500  1.416637  135.309  170.677  41.3939
  8245.298  8245.290  0.500  1.411695  135.122  170.686  41.6012
  8253.118  8253.100  0.500  1.404088  134.975  170.655  41.9114
  8261.111  8261.090  0.500  1.399640  134.841  170.698  42.1088
  8269.264  8269.250  0.500  1.397491  134.65  170.721  42.2049
  8277.592  8277.570  0.500  1.395219  134.47  170.685  42.292
  8286.093  8286.070  0.500  1.391981  134.278  170.676  42.4271
  8294.760  8294.750  0.500  1.385731  134.111  170.661  42.6892
  8303.605  8303.590  0.500  1.380564  133.893  170.63  42.9027
  8312.626  8312.600  0.500  1.377583  133.695  170.636  43.0323
  8321.810  8321.790  0.500  1.375381  133.487  170.611  43.1209
  8331.170  8331.150  0.500  1.372927  133.299  170.654  43.2377
  8340.692  8340.670  0.500  1.369160  132.846  170.316  43.3148
  8350.385  8350.370  0.500  1.364551  132.394  169.981  43.4294
  8360.267  8360.250  0.500  1.359210  132.039  169.79  43.6128
  8370.311  8370.290  0.500  1.353818  131.907  169.874  43.8704
  8380.515  8380.500  0.500  1.350207  131.68  169.813  44.0131
  8390.918  8390.890  0.500  1.346620  131.385  169.698  44.1416
  8401.458  8401.450  0.500  1.341675  131.126  169.67  44.3531
  8412.190  8412.180  0.500  1.336703  130.849  169.532  44.5377
  8423.088  8423.080  0.500  1.332327  130.614  169.526  44.7315
  8434.161  8434.150  0.500  1.327818  130.367  169.484  44.9226
  8445.407  8445.390  0.500  1.323232  130.11  169.421  45.1122
  8456.823  8456.810  0.500  1.319283  129.792  169.299  45.258
  8468.403  8468.390  0.500  1.314711  129.524  169.255  45.4538
  8480.157  8480.150  0.500  1.309493  129.234  169.095  45.6484
  8492.094  8492.080  0.500  1.304080  128.939  169.039  45.8809
  8504.199  8504.180  0.500  1.298613  128.64  168.926  46.1017
  8516.467  8516.450  0.500  1.292985  128.275  168.73  46.3079
  8528.909  8528.890  0.500  1.288651  126.793  167.084  46.0554
  8541.526  8541.510  0.500  1.284489  127.771  168.681  46.6896
  8554.317  8554.290  0.500  1.279171  127.466  168.577  46.9094
  8567.270  8567.250  0.500  1.273563  127.119  168.419  47.1292
  8580.396  8580.380  0.500  1.268025  126.679  168.135  47.311
  8593.703  8593.680  0.500  1.262359  109.771  145.965  41.3059
  8607.174  8607.150  0.500  1.256998  125.473  167.108  47.5434
  8620.809  8620.800  0.500  1.252610  126.522  168.808  48.2383
  8634.630  8634.610  0.500  1.247435  125.975  168.379  48.3652
  8648.619  8648.600  0.500  1.241073  125.414  167.945  48.5486
  8662.783  8662.760  0.500  1.234690  125.25  168.047  48.889
  8677.105  8677.090  0.500  1.229039  124.88  167.903  49.1239
  8691.609  8691.590  0.500  1.224015  124.407  167.575  49.2749
  8706.286  8706.260  0.500  1.218985  121.521  163.985  48.4624
  8721.126  8721.100  0.500  1.213700  123.796  167.373  49.726
  8736.133  8736.120  0.500  1.207447  123.347  167.081  49.9504
  8751.321  8751.300  0.500  1.200919  122.904  166.791  50.1905
  8766.679  8766.660  0.500  1.194925  122.479  166.576  50.4271
  8782.238  8782.190  0.500  1.189245  122.04  166.306  50.6321
  8797.898  8797.890  0.500  1.183945  121.609  166.025  50.8152
  8813.775  8813.760  0.500  1.178248  121.13  165.685  51.0006
  8829.826  8829.810  0.500  1.171661  120.624  165.31  51.2217
  8846.030  8846.020  0.500  1.165317  120.201  165.063  51.4705
  8862.438  8862.410  0.500  1.158972  119.73  164.721  51.6909
  8879.003  8878.970  0.500  1.153359  119.235  164.39  51.8772
  8895.731  8895.700  0.500  1.148473  118.733  164.024  52.0154