Folder: webxdiviewer/xdidata/La (part 3)

File: La-L3-LanthanumNickelate.xdi
# XDI/1.0 BlueSky/1.10.0 BMM/2023-1.0-py310-tiled
# Beamline.name: BMM (06BM) -- Beamline for Materials Measurement (NIST)
# Beamline.xray_source: NSLS-II three-pole wiggler
# Beamline.collimation: paraboloid mirror, 5 nm Rh on 30 nm Pt
# Beamline.focusing: not in use
# Beamline.harmonic_rejection: flat mirror, Si stripe, pitch = 7.0 mrad relative to beam
# Beamline.software: Bluesky 1.10.0, Ophyd 1.7.0, DataBroker 2.0.0b13, Python 3.10.8, 2023-1.0-py310-tiled
# Detector.I0: 10 cm N2
# Detector.I1: 25 cm N2
# Detector.I2: 25 cm N2
# Element.symbol: La
# Element.edge: L3
# Element.reference: La
# Element.reference_material: La(OH)3
# Facility.name: NSLS-II
# Facility.energy: 3.0
# Facility.current: 399.5
# Facility.mode: top-off
# Facility.GUP: 301027
# Facility.SAF: 310583
# Facility.cycle: 2023-2
# Mono.name: Si(111)
# Mono.d_spacing: 3.13519
# Mono.encoder_resolution: 0.0000050 deg/ct
# Mono.angle_offset: 16.0754 deg
# Mono.scan_mode: pseudo channel cut
# Mono.scan_type: step
# Mono.direction: forward in energy
# Sample.name: LaNiO3
# Sample.prep: powder in PEG pellet
# Sample.x: 117.785 mm
# Sample.y: 114.695 mm
# Sample.SDD_position: 205.000 mm
# Scan.experimenters: Bruce Ravel
# Scan.edge_energy: 5482.7
# Scan.start_time: 2023-06-23T14:32:33
# Scan.end_time: 2023-06-23T14:38:43
# Scan.transient_id: 84814
# Scan.uid: e56bbcca-f8dc-41b4-8cea-f3e67959c6ab
# Scan.plot_hint: ln(I0/It)  --  ln($5/$6)
# Column.1: energy eV
# Column.2: requested_energy eV
# Column.3: measurement_time seconds
# Column.4: xmu
# Column.5: I0 nA
# Column.6: It nA
# Column.7: Ir nA
# ///////////
# sample courtesy Martin Stennett, University of Sheffield
# -----------
# energy  requested_energy  measurement_time  xmu  I0  It  Ir
  5282.708  5282.700  0.500  6.026711  99.2385  0.239504  0.005827
  5302.686  5302.700  0.500  5.954431  100.602  0.260994  0.006521
  5322.708  5322.700  0.500  5.883100  101.901  0.283909  0.007336
  5342.706  5342.700  0.500  5.812925  103.101  0.308135  0.008278
  5362.704  5362.700  0.500  5.742982  104.25  0.334141  0.009238
  5382.706  5382.700  0.500  5.675262  104.829  0.359540  0.010383
  5402.705  5402.700  0.500  5.608274  105.81  0.388049  0.011602
  5422.700  5422.700  0.500  5.542893  106.623  0.417449  0.012866
  5442.702  5442.700  0.500  5.481227  107.513  0.447708  0.014384
  5454.704  5454.700  0.500  5.450787  108.019  0.463716  0.015108
  5458.698  5458.700  0.500  5.442017  108.135  0.468304  0.015240
  5462.710  5462.700  0.500  5.437147  108.278  0.471211  0.015375
  5466.705  5466.700  0.500  5.438223  108.416  0.471306  0.015405
  5470.698  5470.700  0.500  5.446746  108.577  0.468002  0.015269
  5472.995  5473.000  0.500  5.459775  108.971  0.463620  0.014980
  5473.593  5473.600  0.500  5.464368  109.001  0.461622  0.015093
  5474.191  5474.200  0.500  5.469520  109.016  0.459310  0.014739
  5474.795  5474.800  0.500  5.477045  109.043  0.455981  0.014629
  5475.392  5475.400  0.500  5.483484  109.015  0.452938  0.014460
  5475.991  5476.000  0.500  5.493025  109.032  0.448708  0.014303
  5476.594  5476.600  0.500  5.503678  109.086  0.444173  0.014002
  5477.196  5477.200  0.500  5.514755  109.121  0.439422  0.013925
  5477.794  5477.800  0.500  5.530178  109.138  0.432762  0.013580
  5478.392  5478.400  0.500  5.547477  109.167  0.425455  0.013216
  5478.996  5479.000  0.500  5.568290  109.18  0.416739  0.012692
  5479.598  5479.600  0.500  5.593599  109.191  0.406367  0.012197
  5480.196  5480.200  0.500  5.624899  109.239  0.394017  0.011590
  5480.796  5480.800  0.500  5.663361  109.288  0.379319  0.011151
  5481.397  5481.400  0.500  5.712836  109.299  0.361046  0.010221
  5481.999  5482.000  0.500  5.776597  109.352  0.338908  0.009285
  5482.596  5482.600  0.500  5.861560  109.387  0.311403  0.008219
  5483.195  5483.200  0.500  5.965769  109.437  0.280713  0.007039
  5483.800  5483.800  0.500  6.084756  109.475  0.249310  0.006090
  5484.398  5484.400  0.500  6.208175  109.484  0.220381  0.005042
  5484.997  5485.000  0.500  6.373869  109.539  0.186823  0.004024
  5485.597  5485.600  0.500  6.611307  109.597  0.147416  0.002907
  5486.200  5486.200  0.500  6.970705  109.655  0.102965  0.001717
  5486.800  5486.800  0.500  7.468195  109.688  0.062627  0.000985
  5487.401  5487.400  0.500  8.167509  109.717  0.031129  0.000484
  5487.996  5488.000  0.500  8.970955  109.765  0.013945  0.000216
  5488.600  5488.600  0.500  9.747077  109.781  0.006418  0.000092
  5489.201  5489.200  0.500  10.2113  109.814  0.004036  0.000125
  5489.801  5489.800  0.500  10.3882  109.863  0.003383  0.000153
  5490.397  5490.400  0.500  10.2809  109.912  0.003768  0.000080
  5491.002  5491.000  0.500  9.932318  109.915  0.005340  0.000196
  5491.603  5491.600  0.500  9.531003  109.928  0.007977  0.000183
  5492.201  5492.200  0.500  9.075122  109.972  0.012589  0.000205
  5492.802  5492.800  0.500  8.648668  109.99  0.019288  0.000235
  5493.402  5493.400  0.500  8.263592  110.01  0.028353  0.000327
  5494.002  5494.000  0.500  7.943560  110.053  0.039062  0.000408
  5494.596  5494.600  0.500  7.686062  110.089  0.050551  0.000618
  5495.197  5495.200  0.500  7.480923  110.096  0.062065  0.000828
  5495.799  5495.800  0.500  7.320155  110.111  0.072900  0.001035
  5496.401  5496.400  0.500  7.188234  110.147  0.083207  0.001208
  5496.997  5497.000  0.500  7.077885  110.161  0.092927  0.001346
  5497.603  5497.600  0.500  6.990116  110.172  0.101462  0.001374
  5498.203  5498.200  0.500  6.936505  110.178  0.107056  0.001691
  5498.796  5498.800  0.500  6.914402  110.187  0.109457  0.001673
  5499.400  5499.400  0.500  6.916778  110.223  0.109233  0.001750
  5500.000  5500.000  0.500  6.936892  110.239  0.107074  0.001577
  5500.603  5500.600  0.500  6.960738  110.254  0.104565  0.001582
  5501.201  5501.200  0.500  6.984815  110.268  0.102090  0.001498
  5501.802  5501.800  0.500  7.002518  110.271  0.100302  0.001493
  5502.403  5502.400  0.500  7.019420  110.31  0.098655  0.001650
  5503.004  5503.000  0.500  7.034006  110.335  0.097249  0.001647
  5503.603  5503.600  0.500  7.040715  110.366  0.096625  0.001610
  5504.201  5504.200  0.500  7.039160  110.392  0.096798  0.001619
  5504.805  5504.800  0.500  7.027142  110.41  0.097985  0.001618
  5505.407  5505.400  0.500  7.014537  110.411  0.099229  0.001754
  5505.999  5506.000  0.500  7.002086  110.448  0.100505  0.001667
  5506.601  5506.600  0.500  6.992546  110.444  0.101466  0.001798
  5507.206  5507.200  0.500  6.987698  110.465  0.101978  0.001757
  5507.702  5507.700  0.500  6.985264  110.481  0.102241  0.001645
  5509.701  5509.690  0.500  7.009009  110.551  0.099905  0.001566
  5511.771  5511.760  0.500  7.077863  110.602  0.093301  0.001526
  5513.905  5513.900  0.500  7.172267  110.721  0.084987  0.001154
  5516.129  5516.120  0.500  7.285408  110.753  0.075918  0.001090
  5518.420  5518.410  0.500  7.338858  110.84  0.072023  0.001042
  5520.788  5520.780  0.500  7.307823  110.951  0.074368  0.000870
  5523.233  5523.230  0.500  7.236960  110.98  0.079850  0.001067
  5525.759  5525.750  0.500  7.147032  111.097  0.087455  0.001238
  5528.361  5528.350  0.500  7.060995  111.167  0.095373  0.001433
  5531.037  5531.030  0.500  7.004793  111.234  0.100947  0.001385
[...]
  5576.492  5576.490  0.500  6.868105  112.416  0.116963  0.001711
  5580.313  5580.310  0.500  6.844866  112.45  0.119749  0.001927
  5584.233  5584.210  0.500  6.858632  112.537  0.118203  0.001894
  5588.173  5588.180  0.500  6.888877  112.592  0.114738  0.001892
  5592.229  5592.220  0.500  6.885803  112.783  0.115287  0.001908
  5596.346  5596.350  0.500  6.860069  113.209  0.118738  0.001990
  5600.544  5600.550  0.500  6.828293  113.237  0.122603  0.001993
  5604.836  5604.820  0.500  6.841887  113.304  0.121018  0.002022
  5609.175  5609.180  0.500  6.869639  113.413  0.117820  0.001885
  5613.595  5613.600  0.500  6.857607  113.488  0.119324  0.002080
  5618.100  5618.110  0.500  6.834173  113.489  0.122155  0.001989
  5622.686  5622.690  0.500  6.801393  113.549  0.126293  0.002005
  5627.359  5627.350  0.500  6.749920  113.585  0.133005  0.002113
  5632.086  5632.080  0.500  6.704366  113.609  0.139233  0.002288
  5636.883  5636.890  0.500  6.686648  113.605  0.141717  0.002418
  5641.765  5641.770  0.500  6.686074  113.652  0.141858  0.002446
  5646.751  5646.740  0.500  6.699756  113.66  0.139940  0.002461
  5651.777  5651.770  0.500  6.706418  113.667  0.139019  0.002542
  5656.896  5656.890  0.500  6.694555  113.57  0.140558  0.002561
  5662.086  5662.080  0.500  6.670659  113.581  0.143971  0.002555
  5667.353  5667.350  0.500  6.658896  113.561  0.145649  0.002597
  5672.701  5672.690  0.500  6.637032  113.505  0.148795  0.002664
  5678.122  5678.110  0.500  6.595286  113.462  0.155080  0.002769
  5683.610  5683.600  0.500  6.547595  113.387  0.162547  0.002964
  5689.155  5689.170  0.500  6.512651  113.253  0.168128  0.003071
  5694.839  5694.820  0.500  6.503886  113.182  0.169503  0.003228
  5700.559  5700.550  0.500  6.514972  113.107  0.167523  0.003265
  5706.356  5706.350  0.500  6.529546  113.019  0.164970  0.003162
  5712.208  5712.220  0.500  6.526927  112.895  0.165221  0.003037
  5718.193  5718.170  0.500  6.504122  112.786  0.168869  0.003228
  5724.191  5724.200  0.500  6.472187  112.688  0.174198  0.003351
  5730.290  5730.310  0.500  6.442611  112.58  0.179255  0.003578
  5736.480  5736.490  0.500  6.409699  112.45  0.185038  0.003634
  5742.731  5742.750  0.500  6.373600  112.34  0.191654  0.003926
  5749.062  5749.080  0.500  6.345663  112.225  0.196880  0.004111
  5755.476  5755.490  0.500  6.331284  112.107  0.199523  0.004178
  5761.955  5761.970  0.500  6.327797  111.892  0.199834  0.004144
  5768.547  5768.540  0.500  6.322365  111.767  0.200698  0.004178
  5775.151  5775.170  0.500  6.300726  111.56  0.204709  0.004363
  5781.877  5781.890  0.500  6.279312  111.369  0.208783  0.004500
  5788.668  5788.680  0.500  6.261917  111.216  0.212153  0.004798
  5795.554  5795.550  0.500  6.231691  110.988  0.218216  0.004897
  5802.480  5802.490  0.500  6.198360  110.723  0.225073  0.005008
  5809.496  5809.510  0.500  6.164305  110.457  0.232310  0.005242
  5816.583  5816.600  0.500  6.141876  110.137  0.236892  0.005437
  5823.768  5823.780  0.500  6.129617  109.823  0.239130  0.005520
  5831.007  5831.020  0.500  6.117444  109.461  0.241260  0.005616
  5838.329  5838.350  0.500  6.093193  109.026  0.246201  0.005962
  5845.732  5845.750  0.500  6.065356  108.517  0.251968  0.006107
  5853.206  5853.220  0.500  6.038270  107.98  0.257607  0.006424
  5860.770  5860.780  0.500  6.017632  107.228  0.261145  0.006424
  5868.398  5868.410  0.500  5.998658  105.731  0.262433  0.006637
  5876.097  5876.110  0.500  5.980595  107.966  0.272864  0.006909
  5879.973  5879.990  0.500  5.975036  107.17  0.272363  0.006970