Folder: webxdiviewer/xdidata/La

Note: xdidata/README.md
# bmm-standards
A pretty webpage for BMM's collection of common XAFS materials

[BMM's common materials collection](./BMM-standards.html)

Plotting of the data will happen soon.

Periodic table adapted from [some guy named Daniel](https://codepen.io/gooseofmusic/pen/PjKdNQ)

[This](https://www.coderstool.com/scss-to-css) is a helpful tool for
dealing with Sassy CSS.

File: La-L1-LanthanumHydroxide.xdi
# XDI/1.0 BlueSky/1.10.0 BMM/2023-1.0-py310-tiled
# Beamline.name: BMM (06BM) -- Beamline for Materials Measurement (NIST)
# Beamline.xray_source: NSLS-II three-pole wiggler
# Beamline.collimation: paraboloid mirror, 5 nm Rh on 30 nm Pt
# Beamline.focusing: not in use
# Beamline.harmonic_rejection: flat mirror, Si stripe, pitch = 7.0 mrad relative to beam
# Beamline.software: Bluesky 1.10.0, Ophyd 1.7.0, DataBroker 2.0.0b13, Python 3.10.8, 2023-1.0-py310-tiled
# Detector.I0: 10 cm N2
# Detector.I1: 25 cm N2
# Detector.I2: 25 cm N2
# Element.symbol: La
# Element.edge: L1
# Element.reference: La
# Element.reference_material: La(OH)3
# Facility.name: NSLS-II
# Facility.energy: 3.0
# Facility.current: 398.6
# Facility.mode: top-off
# Facility.GUP: 301027
# Facility.SAF: 310583
# Facility.cycle: 2023-2
# Mono.name: Si(111)
# Mono.d_spacing: 3.13519
# Mono.encoder_resolution: 0.0000050 deg/ct
# Mono.angle_offset: 16.0754 deg
# Mono.scan_mode: pseudo channel cut
# Mono.scan_type: step
# Mono.direction: forward in energy
# Sample.name: La(OH)3
# Sample.prep: PEG pellet
# Sample.x: 109.138 mm
# Sample.y: 153.150 mm
# Sample.SDD_position: 205.000 mm
# Scan.experimenters: Bruce Ravel
# Scan.edge_energy: 6266.3
# Scan.start_time: 2023-05-28T12:14:57
# Scan.end_time: 2023-05-28T12:23:04
# Scan.transient_id: 78672
# Scan.uid: 1c7fe93c-c574-483a-b625-93c2d677014d
# Scan.plot_hint: ln(It/Ir)  --  ln($6/$7)
# Column.1: energy eV
# Column.2: requested_energy eV
# Column.3: measurement_time seconds
# Column.4: xmu
# Column.5: I0 nA
# Column.6: It nA
# Column.7: Ir nA
# ///////////
# sample courtesy Martin Stennett, University of Sheffield
# -----------
# energy  requested_energy  measurement_time  xmu  I0  It  Ir
  6066.300  6066.300  0.500  4.017890  143.44  92.6887  1.667551
  6096.301  6096.300  0.500  3.974364  144.707  94.9894  1.784969
  6126.309  6126.300  0.500  3.930373  145.949  97.3601  1.911797
  6156.314  6156.300  0.500  3.876935  146.983  99.658  2.064338
  6186.292  6186.300  0.500  3.832732  148.095  101.953  2.207311
  6216.296  6216.300  0.500  3.787979  148.751  103.963  2.353865
  6238.301  6238.300  0.500  3.755359  149.467  105.624  2.470773
  6244.299  6244.300  0.500  3.745680  149.637  105.993  2.503517
  6250.294  6250.300  0.500  3.737477  149.81  106.504  2.536300
  6256.294  6256.300  0.500  3.730490  149.982  106.919  2.564036
  6257.183  6257.200  0.500  3.729625  149.999  106.975  2.567606
  6258.085  6258.100  0.500  3.728607  150.011  106.939  2.569341
  6258.988  6259.000  0.500  3.727790  150.061  107.119  2.575771
  6259.891  6259.900  0.500  3.727189  150.054  107.093  2.576686
  6260.790  6260.800  0.500  3.726319  150.037  107.164  2.580649
  6261.691  6261.700  0.500  3.725701  150.03  107.217  2.583527
  6262.599  6262.600  0.500  3.725592  150.08  107.326  2.586431
  6263.493  6263.500  0.500  3.724827  150.104  107.335  2.588633
  6264.395  6264.400  0.500  3.724899  150.139  107.372  2.589327
  6265.298  6265.300  0.500  3.725291  150.154  107.463  2.590523
  6266.199  6266.200  0.500  3.725713  150.179  107.617  2.593122
  6267.097  6267.100  0.500  3.726585  150.196  107.544  2.589103
  6267.996  6268.000  0.500  3.727602  150.217  107.618  2.588256
  6268.900  6268.900  0.500  3.730588  150.228  107.685  2.582147
  6269.795  6269.800  0.500  3.735374  150.234  107.719  2.570631
  6270.699  6270.700  0.500  3.743955  150.277  107.796  2.550490
  6271.599  6271.600  0.500  3.754368  150.278  107.849  2.525305
  6272.497  6272.500  0.500  3.761093  150.283  107.964  2.511062
  6273.400  6273.400  0.500  3.765108  150.314  108.017  2.502229
  6274.302  6274.300  0.500  3.770018  150.308  108.066  2.491099
  6275.197  6275.200  0.500  3.777449  150.327  108.137  2.474278
  6276.099  6276.100  0.500  3.787579  150.356  108.197  2.450704
  6277.004  6277.000  0.500  3.801689  150.378  108.276  2.418122
  6277.895  6277.900  0.500  3.819116  150.374  108.303  2.376950
  6278.800  6278.800  0.500  3.841397  150.406  108.396  2.326562
  6279.703  6279.700  0.500  3.866428  150.404  108.402  2.269173
  6280.599  6280.600  0.500  3.895533  150.455  108.497  2.206013
  6281.504  6281.500  0.500  3.924170  150.485  108.556  2.144902
  6282.405  6282.400  0.500  3.949505  150.506  108.614  2.092368
  6283.297  6283.300  0.500  3.969806  150.526  108.709  2.052114
  6284.203  6284.200  0.500  3.982290  150.519  108.747  2.027367
  6285.103  6285.100  0.500  3.983284  150.547  108.827  2.026828
  6285.997  6286.000  0.500  3.975078  150.555  108.875  2.044428
  6286.901  6286.900  0.500  3.962150  150.591  108.927  2.072027
  6287.804  6287.800  0.500  3.948893  150.575  108.97  2.100506
  6288.702  6288.700  0.500  3.937855  150.626  109.009  2.124574
  6289.605  6289.600  0.500  3.928653  150.646  109.12  2.146414
  6290.503  6290.500  0.500  3.920350  151.13  109.505  2.171931
  6291.296  6291.300  0.500  3.913189  151.234  109.593  2.189311
  6294.310  6294.310  0.500  3.896979  151.321  109.854  2.230382
  6297.501  6297.500  0.500  3.876706  151.388  110.066  2.280455
  6300.861  6300.860  0.500  3.849049  151.466  110.32  2.349821
  6304.380  6304.380  0.500  3.826529  151.521  110.54  2.408123
  6308.084  6308.080  0.500  3.815659  151.587  110.746  2.438979
  6311.952  6311.950  0.500  3.813693  151.63  110.991  2.449196
  6316.002  6316.000  0.500  3.826243  151.676  111.201  2.423225
  6320.219  6320.210  0.500  3.832439  151.705  111.503  2.414791
  6324.597  6324.590  0.500  3.831478  151.749  111.733  2.422107
  6329.154  6329.150  0.500  3.829912  151.774  111.999  2.431676
  6333.887  6333.880  0.500  3.824462  151.815  112.289  2.451283
  6338.784  6338.780  0.500  3.810294  151.884  112.564  2.492347
  6343.859  6343.850  0.500  3.789798  151.878  112.845  2.550318
  6349.096  6349.090  0.500  3.771653  151.969  113.227  2.605813
  6354.519  6354.510  0.500  3.759153  152.024  113.493  2.644787
  6360.100  6360.090  0.500  3.752001  152.082  113.855  2.672257
  6365.859  6365.850  0.500  3.749314  152.193  114.218  2.687993
  6371.795  6371.780  0.500  3.745127  152.268  114.598  2.708247
  6377.889  6377.880  0.500  3.735325  152.339  114.915  2.742502
  6384.161  6384.150  0.500  3.725945  152.403  115.293  2.777454
  6390.604  6390.590  0.500  3.718290  152.477  115.736  2.809551
  6397.211  6397.200  0.500  3.711125  152.537  116.106  2.838803
  6404.006  6403.990  0.500  3.702540  152.612  116.44  2.871501
  6410.964  6410.950  0.500  3.688288  152.702  116.899  2.924215
  6418.079  6418.070  0.500  3.674289  152.776  117.317  2.976026
  6425.383  6425.370  0.500  3.662552  152.834  117.743  3.022105
  6432.864  6432.850  0.500  3.653555  152.793  118.131  3.059461
  6440.503  6440.490  0.500  3.645362  152.92  118.638  3.097858
  6448.312  6448.300  0.500  3.635183  152.301  118.577  3.127952
  6456.299  6456.290  0.500  3.622456  153.044  119.476  3.192040
  6464.457  6464.450  0.500  3.610945  151.658  118.877  3.212791
  6472.778  6472.770  0.500  3.599571  153.126  120.433  3.292104
  6481.279  6481.270  0.500  3.587576  153.093  120.818  3.342474
  6489.962  6489.950  0.500  3.575036  153.217  121.354  3.399667
  6498.803  6498.790  0.500  3.561137  153.245  121.831  3.460792
  6507.818  6507.800  0.500  3.547218  153.298  122.339  3.523921
  6516.997  6516.990  0.500  3.534910  153.334  122.866  3.582939
  6526.374  6526.350  0.500  3.523864  153.408  123.361  3.637343
  6535.902  6535.870  0.500  3.512080  153.433  123.847  3.694942
  6545.572  6545.570  0.500  3.498220  153.454  124.379  3.762626
  6555.446  6555.450  0.500  3.483822  153.413  124.878  3.832508
  6565.472  6565.490  0.500  3.469869  153.427  125.375  3.901805
  6575.691  6575.700  0.500  3.456806  153.458  125.93  3.970598
  6586.088  6586.090  0.500  3.443248  153.253  126.294  4.036455
  6596.637  6596.650  0.500  3.429393  153.438  126.943  4.113803
  6607.368  6607.380  0.500  3.413536  153.455  127.523  4.198624
  6618.271  6618.280  0.500  3.398955  153.395  128.014  4.276720
  6629.339  6629.350  0.500  3.385112  153.293  128.472  4.351855
  6640.572  6640.590  0.500  3.370915  153.878  129.47  4.448348
  6652.036  6652.010  0.500  3.356487  153.87  130.066  4.533758
  6663.584  6663.590  0.500  3.341251  153.801  130.617  4.622901
  6675.347  6675.350  0.500  3.325536  153.679  131.097  4.713364
  6687.294  6687.280  0.500  3.310004  153.595  131.593  4.805258
  6699.366  6699.380  0.500  3.295450  153.421  132.029  4.891871
  6711.644  6711.650  0.500  3.280314  153.176  132.371  4.979330
  6724.093  6724.090  0.500  3.264548  153  132.827  5.075859
  6736.698  6736.710  0.500  3.248572  152.738  133.25  5.174050
  6749.466  6749.490  0.500  3.232539  152.526  133.618  5.272182
  6762.433  6762.450  0.500  3.216730  152.225  134.037  5.372988
  6775.557  6775.580  0.500  3.201039  151.982  134.481  5.476031
  6788.861  6788.880  0.500  3.185316  151.63  134.719  5.572667
  6802.323  6802.350  0.500  3.169339  151.255  135.091  5.678073
  6815.983  6816.000  0.500  3.153074  150.53  135.115  5.772204
  6829.788  6829.810  0.500  3.136779  150.096  135.301  5.875104
  6843.787  6843.800  0.500  3.120408  149.398  135.333  5.973489
  6857.936  6857.960  0.500  3.103759  149.327  135.917  6.099989
  6872.267  6872.290  0.500  3.087293  149.038  136.261  6.216932
  6886.770  6886.790  0.500  3.070978  148.731  136.674  6.338366
  6901.441  6901.460  0.500  3.054136  148.389  137.027  6.462648
  6916.283  6916.300  0.500  3.037476  147.815  137.122  6.575774
  6931.304  6931.320  0.500  3.020715  147.283  137.335  6.697330
  6946.483  6946.500  0.500  3.003616  146.82  137.571  6.824521
  6961.840  6961.860  0.500  2.986615  146.357  137.847  6.955466
  6977.371  6977.390  0.500  2.969828  145.9  138.054  7.083832
  6993.074  6993.090  0.500  2.952698  145.372  138.229  7.215387
  7008.936  7008.960  0.500  2.935660  144.842  138.417  7.349346
  7024.991  7025.010  0.500  2.918326  144.186  138.486  7.481558
  7041.206  7041.220  0.500  2.901017  143.55  138.545  7.615422
  7057.591  7057.610  0.500  2.883932  142.789  138.487  7.743433
  7074.150  7074.170  0.500  2.866554  142.032  138.465  7.877905
  7090.885  7090.900  0.500  2.849474  141.098  138.188  7.997609
  7107.790  7107.800  0.500  2.832012  140.209  138.038  8.129632
  7119.144  7119.160  0.500  2.820323  139.187  137.49  8.192576

File: La-L1-LanthanumNickelate.xdi
# XDI/1.0 BlueSky/1.10.0 BMM/2023-1.0-py310-tiled
# Beamline.name: BMM (06BM) -- Beamline for Materials Measurement (NIST)
# Beamline.xray_source: NSLS-II three-pole wiggler
# Beamline.collimation: paraboloid mirror, 5 nm Rh on 30 nm Pt
# Beamline.focusing: not in use
# Beamline.harmonic_rejection: flat mirror, Si stripe, pitch = 7.0 mrad relative to beam
# Beamline.software: Bluesky 1.10.0, Ophyd 1.7.0, DataBroker 2.0.0b13, Python 3.10.8, 2023-1.0-py310-tiled
# Detector.I0: 10 cm N2
# Detector.I1: 25 cm N2
# Detector.I2: 25 cm N2
# Element.symbol: La
# Element.edge: L1
# Element.reference: La
# Element.reference_material: La(OH)3
# Facility.name: NSLS-II
# Facility.energy: 3.0
# Facility.current: 399.2
# Facility.mode: top-off
# Facility.GUP: 301027
# Facility.SAF: 310583
# Facility.cycle: 2023-2
# Mono.name: Si(111)
# Mono.d_spacing: 3.13519
# Mono.encoder_resolution: 0.0000050 deg/ct
# Mono.angle_offset: 16.0754 deg
# Mono.scan_mode: pseudo channel cut
# Mono.scan_type: step
# Mono.direction: forward in energy
# Sample.name: LaNiO3
# Sample.prep: powder in PEG pellet
# Sample.x: 117.785 mm
# Sample.y: 114.695 mm
# Sample.SDD_position: 205.000 mm
# Scan.experimenters: Bruce Ravel
# Scan.edge_energy: 6266.3
# Scan.start_time: 2023-06-23T14:42:27
# Scan.end_time: 2023-06-23T14:50:28
# Scan.transient_id: 84821
# Scan.uid: 6208df65-973b-47a1-9b19-a8dc28e2cbd2
# Scan.plot_hint: ln(I0/It)  --  ln($5/$6)
# Column.1: energy eV
# Column.2: requested_energy eV
# Column.3: measurement_time seconds
# Column.4: xmu
# Column.5: I0 nA
# Column.6: It nA
# Column.7: Ir nA
# ///////////
# sample courtesy Martin Stennett, University of Sheffield
# -----------
# energy  requested_energy  measurement_time  xmu  I0  It  Ir
  6066.307  6066.300  0.500  6.244465  142.945  0.277480  0.007226
  6096.304  6096.300  0.500  6.129847  144.199  0.313910  0.008308
  6126.307  6126.300  0.500  6.095199  145.314  0.327489  0.009025
  6156.308  6156.300  0.500  5.989314  146.264  0.366448  0.010320
  6186.302  6186.300  0.500  5.928120  146.325  0.389734  0.011565
  6216.304  6216.300  0.500  5.846084  147.252  0.425735  0.012882
  6238.323  6238.300  0.500  5.804049  147.879  0.445903  0.013663
  6244.301  6244.300  0.500  5.790847  148.025  0.452274  0.013943
  6250.299  6250.300  0.500  5.775196  148.15  0.459795  0.014475
  6256.301  6256.300  0.500  5.763386  148.306  0.465749  0.014523
  6257.184  6257.200  0.500  5.761808  148.294  0.466447  0.014558
  6258.085  6258.100  0.500  5.759967  148.303  0.467334  0.014658
  6258.990  6259.000  0.500  5.758760  148.859  0.469655  0.014755
  6259.889  6259.900  0.500  5.757754  148.905  0.470272  0.014816
  6260.788  6260.800  0.500  5.756915  148.919  0.470710  0.014759
  6261.693  6261.700  0.500  5.756248  148.927  0.471051  0.014805
  6262.595  6262.600  0.500  5.755968  148.966  0.471304  0.014710
  6263.488  6263.500  0.500  5.755830  148.912  0.471198  0.014917
  6264.398  6264.400  0.500  5.757397  148.995  0.470723  0.014791
  6265.299  6265.300  0.500  5.759638  148.994  0.469667  0.014810
  6266.197  6266.200  0.500  5.761739  148.978  0.468632  0.014814
  6267.098  6267.100  0.500  5.764510  148.99  0.467373  0.014854
  6268.000  6268.000  0.500  5.770061  149.048  0.464965  0.014705
  6268.898  6268.900  0.500  5.777249  149.062  0.461679  0.014555
  6269.804  6269.800  0.500  5.790049  149.102  0.455929  0.014222
  6270.699  6270.700  0.500  5.810977  149.197  0.446771  0.013821
  6271.599  6271.600  0.500  5.833413  149.22  0.436928  0.013490
  6272.502  6272.500  0.500  5.850722  149.246  0.429504  0.013042
  6273.401  6273.400  0.500  5.861238  149.248  0.425016  0.012939
  6274.295  6274.300  0.500  5.871210  149.316  0.420992  0.012794
  6275.202  6275.200  0.500  5.885229  149.413  0.415399  0.012470
  6276.104  6276.100  0.500  5.904914  149.459  0.407428  0.012147
  6277.002  6277.000  0.500  5.935472  149.515  0.395314  0.011581
  6277.902  6277.900  0.500  5.976938  149.615  0.379511  0.011040
  6278.803  6278.800  0.500  6.029089  149.656  0.360324  0.010258
  6279.700  6279.700  0.500  6.091736  149.683  0.338504  0.009558
  6280.607  6280.600  0.500  6.166356  149.817  0.314445  0.008643
  6281.496  6281.500  0.500  6.233187  149.866  0.294216  0.007816
  6282.400  6282.400  0.500  6.281552  149.889  0.280366  0.007444
  6283.302  6283.300  0.500  6.303744  149.91  0.274251  0.007161
  6284.200  6284.200  0.500  6.297305  149.963  0.276121  0.007105
  6285.102  6285.100  0.500  6.267157  149.991  0.284626  0.007319
  6286.009  6286.000  0.500  6.222484  150.013  0.297673  0.007751
  6286.899  6286.900  0.500  6.179244  150.066  0.310936  0.008142
  6287.804  6287.800  0.500  6.143276  150.082  0.322358  0.008370
  6288.707  6288.700  0.500  6.113838  150.117  0.332065  0.008692
  6289.603  6289.600  0.500  6.093214  150.136  0.339028  0.008959
  6290.506  6290.500  0.500  6.078575  150.163  0.344090  0.009113
  6291.301  6291.300  0.500  6.068868  150.119  0.347344  0.009382
  6294.330  6294.310  0.500  6.060914  150.254  0.350434  0.009608
  6297.498  6297.500  0.500  6.051614  150.316  0.353853  0.009752
  6300.860  6300.860  0.500  6.027597  150.343  0.362518  0.010192
  6304.385  6304.380  0.500  5.987838  150.402  0.377370  0.010824
  6308.089  6308.080  0.500  5.960300  150.481  0.388110  0.011141
  6311.957  6311.950  0.500  5.968212  150.545  0.385216  0.011258
  6316.007  6316.000  0.500  5.998404  150.593  0.373878  0.010706
  6320.217  6320.210  0.500  6.007122  150.67  0.370823  0.010654
  6324.596  6324.590  0.500  5.981872  150.777  0.380575  0.010856
  6329.154  6329.150  0.500  5.968932  150.842  0.385698  0.010959
  6333.892  6333.880  0.500  5.970660  150.932  0.385262  0.011005
  6338.791  6338.780  0.500  5.954442  151.025  0.391803  0.011283
  6343.863  6343.850  0.500  5.910025  151.078  0.409741  0.012123
  6349.103  6349.090  0.500  5.879673  151.169  0.422622  0.012670
  6354.522  6354.510  0.500  5.864703  151.239  0.429195  0.012921
  6360.101  6360.090  0.500  5.871550  151.338  0.426547  0.012974
  6365.866  6365.850  0.500  5.870998  151.519  0.427293  0.013025
  6371.790  6371.780  0.500  5.845787  151.577  0.438369  0.013325
  6377.889  6377.880  0.500  5.818558  151.69  0.450807  0.013774
  6384.162  6384.150  0.500  5.811690  151.73  0.454033  0.013880
  6390.600  6390.590  0.500  5.801033  152.07  0.459926  0.014287
  6397.213  6397.200  0.500  5.772412  152.438  0.474423  0.014748
  6403.997  6403.990  0.500  5.749416  152.486  0.485614  0.015030
  6410.962  6410.950  0.500  5.738199  152.6  0.491458  0.015462
  6418.076  6418.070  0.500  5.730354  152.669  0.495553  0.015822
  6425.380  6425.370  0.500  5.717326  152.746  0.502304  0.016150
  6432.854  6432.850  0.500  5.701852  152.684  0.509930  0.016526
  6440.496  6440.490  0.500  5.678341  152.795  0.522440  0.017001
  6448.307  6448.300  0.500  5.652989  152.101  0.533421  0.017580
  6456.296  6456.290  0.500  5.628077  153.018  0.550175  0.018198
  6464.463  6464.450  0.500  5.607552  151.659  0.556596  0.018565
  6472.778  6472.770  0.500  5.596951  152.998  0.567491  0.019251
  6481.278  6481.270  0.500  5.584921  153.03  0.574481  0.019678
  6489.964  6489.950  0.500  5.562696  153.104  0.587678  0.020188
  6498.797  6498.790  0.500  5.533308  153.154  0.605402  0.021117
  6507.832  6507.800  0.500  5.506495  153.123  0.621728  0.022021
  6517.024  6516.990  0.500  5.484454  153.142  0.635663  0.022665
  6526.372  6526.350  0.500  5.466649  153.212  0.647376  0.023389
  6535.909  6535.870  0.500  5.450114  153.209  0.658160  0.023926
  6545.568  6545.570  0.500  5.431452  153.205  0.670540  0.024661
  6555.451  6555.450  0.500  5.405514  153.126  0.687801  0.025493
  6565.501  6565.490  0.500  5.379424  153.066  0.705706  0.026696
  6575.721  6575.700  0.500  5.350558  153.066  0.726374  0.027906
  6586.094  6586.090  0.500  5.326064  152.775  0.742972  0.028689
  6596.644  6596.650  0.500  5.306778  152.978  0.758445  0.029774
  6607.412  6607.380  0.500  5.286507  152.908  0.773623  0.030711
  6618.313  6618.280  0.500  5.260449  152.83  0.793644  0.031905
  6629.346  6629.350  0.500  5.234661  152.779  0.814103  0.033092
  6640.576  6640.590  0.500  5.210505  152.677  0.833450  0.034299
  6652.053  6652.010  0.500  5.184192  152.604  0.855266  0.035784
  6663.637  6663.590  0.500  5.156354  152.489  0.878744  0.037209
  6675.338  6675.350  0.500  5.130070  152.373  0.901460  0.038616
  6687.258  6687.280  0.500  5.107247  152.293  0.921788  0.040066
  6699.421  6699.380  0.500  5.080831  152.135  0.945478  0.041679
  6711.621  6711.650  0.500  5.054836  151.997  0.969497  0.043283
  6724.080  6724.090  0.500  5.030210  151.827  0.992556  0.045068
  6736.690  6736.710  0.500  5.003101  151.738  1.019238  0.046704
  6749.460  6749.490  0.500  4.974397  151.563  1.047706  0.048835
  6762.425  6762.450  0.500  4.945846  151.443  1.077198  0.050987
  6775.561  6775.580  0.500  4.919040  151.315  1.105529  0.053122
  6788.857  6788.880  0.500  4.892572  151.083  1.133442  0.055102
  6802.329  6802.350  0.500  4.867006  150.955  1.161802  0.057356
  6815.971  6816.000  0.500  4.838118  150.22  1.190035  0.059847
  6829.784  6829.810  0.500  4.809473  149.791  1.221121  0.062120
  6843.781  6843.800  0.500  4.780832  149.41  1.253402  0.064912
  6857.944  6857.960  0.500  4.753012  149.367  1.288391  0.067650
  6872.265  6872.290  0.500  4.725279  149.196  1.323104  0.070538
  6886.772  6886.790  0.500  4.697523  148.929  1.357907  0.073540
  6901.433  6901.460  0.500  4.668928  148.609  1.394300  0.076635
  6916.271  6916.300  0.500  4.640265  148.108  1.430003  0.079870
  6931.306  6931.320  0.500  4.610703  147.576  1.467616  0.083380
  6946.479  6946.500  0.500  4.580959  147.069  1.506735  0.086906
  6961.830  6961.860  0.500  4.552255  146.564  1.545281  0.090508
  6977.361  6977.390  0.500  4.523852  146.061  1.584342  0.094411
  6993.068  6993.090  0.500  4.494750  145.467  1.624500  0.098318
  7008.938  7008.960  0.500  4.464923  144.899  1.667146  0.102405
  7024.993  7025.010  0.500  4.434975  144.816  1.716852  0.107055
  7041.202  7041.220  0.500  4.405062  144.208  1.761555  0.111845
  7057.607  7057.610  0.500  4.375548  143.577  1.806375  0.116727
  7074.150  7074.170  0.500  4.345643  142.964  1.853269  0.121601
  7090.882  7090.900  0.500  4.316082  142.236  1.899153  0.126677
  7107.779  7107.800  0.500  4.286626  141.486  1.945615  0.131862
  7119.144  7119.160  0.500  4.266617  140.788  1.975142  0.135322