Folder: webxdiviewer/xdidata/Lu

Note: xdidata/README.md
# bmm-standards
A pretty webpage for BMM's collection of common XAFS materials

[BMM's common materials collection](./BMM-standards.html)

Plotting of the data will happen soon.

Periodic table adapted from [some guy named Daniel](https://codepen.io/gooseofmusic/pen/PjKdNQ)

[This](https://www.coderstool.com/scss-to-css) is a helpful tool for
dealing with Sassy CSS.

File: Lu-L3-Lu2TiO5.xdi
# XDI/1.0 BlueSky/1.10.0 BMM/2023-1.0-py310-tiled
# Beamline.name: BMM (06BM) -- Beamline for Materials Measurement (NIST)
# Beamline.xray_source: NSLS-II three-pole wiggler
# Beamline.collimation: paraboloid mirror, 5 nm Rh on 30 nm Pt
# Beamline.focusing: not in use
# Beamline.harmonic_rejection: flat mirror, Pt stripe, pitch = 7.0 mrad relative to beam
# Beamline.software: Bluesky 1.10.0, Ophyd 1.7.0, DataBroker 2.0.0b13, Python 3.10.8, 2023-1.0-py310-tiled
# Detector.I0: 10 cm N2
# Detector.I1: 25 cm N2
# Detector.I2: 25 cm N2
# Element.symbol: Lu
# Element.edge: L3
# Element.reference: Lu
# Element.reference_material: Lu2O3
# Facility.name: NSLS-II
# Facility.energy: 3.0
# Facility.current: 400.4
# Facility.mode: top-off
# Facility.GUP: 123456
# Facility.SAF: 301027
# Facility.cycle: 2023-2
# Mono.name: Si(111)
# Mono.d_spacing: 3.13519
# Mono.encoder_resolution: 0.0000050 deg/ct
# Mono.angle_offset: 16.0754 deg
# Mono.scan_mode: pseudo channel cut
# Mono.scan_type: step
# Mono.direction: forward in energy
# Sample.name: Lu2TiO5
# Sample.prep: Powder in PEG pellet
# Sample.x: 149.848 mm
# Sample.y: 114.690 mm
# Sample.SDD_position: 205.000 mm
# Scan.experimenters: Bruce Ravel
# Scan.edge_energy: 9244.1
# Scan.start_time: 2023-05-08T19:39:05
# Scan.end_time: 2023-05-08T19:44:59
# Scan.transient_id: 75547
# Scan.uid: 815333d6-c1a3-4b29-ad3b-7377ef9710d2
# Scan.plot_hint: ln(I0/It)  --  ln($5/$6)
# Column.1: energy eV
# Column.2: requested_energy eV
# Column.3: measurement_time seconds
# Column.4: xmu
# Column.5: I0 nA
# Column.6: It nA
# Column.7: Ir nA
# ///////////
# sample courtesy Martin Stennett, University of Sheffield
# -----------
# energy  requested_energy  measurement_time  xmu  I0  It  Ir
  9044.139  9044.100  0.500  0.732890  116.77  56.1101  16.6702
  9064.168  9064.100  0.500  0.726034  115.65  55.9542  16.7487
  9084.132  9084.100  0.500  0.719152  115.981  56.5018  17.0321
  9104.108  9104.100  0.500  0.712075  114.372  56.1139  17.0372
  9124.142  9124.100  0.500  0.705269  115.185  56.8986  17.3981
  9144.072  9144.100  0.500  0.697692  111.341  55.4181  17.0574
  9164.081  9164.100  0.500  0.691653  114.671  57.4211  17.7855
  9184.089  9184.100  0.500  0.685830  114.409  57.6247  17.9472
  9204.087  9204.100  0.500  0.681526  113.781  57.5554  17.9699
  9216.077  9216.100  0.500  0.681503  113.502  57.4158  17.8677
  9220.069  9220.100  0.500  0.682597  113.4  57.3013  17.777
  9224.069  9224.100  0.500  0.684802  113.297  57.123  17.6234
  9228.076  9228.100  0.500  0.689018  113.194  56.8312  17.3704
  9232.075  9232.100  0.500  0.697092  113.094  56.3245  16.9202
  9234.567  9234.600  0.500  0.706092  113.04  55.7932  16.4539
  9235.575  9235.600  0.500  0.711067  113.015  55.5039  16.1976
  9236.575  9236.600  0.500  0.717197  112.99  55.1524  15.8868
  9237.576  9237.600  0.500  0.724615  112.96  54.7302  15.5144
  9238.565  9238.600  0.500  0.733909  112.934  54.2115  15.0577
  9239.574  9239.600  0.500  0.745992  112.906  53.5472  14.4736
  9240.586  9240.600  0.500  0.762224  112.886  52.6758  13.7214
  9241.591  9241.600  0.500  0.782579  112.854  51.5996  12.8014
  9242.585  9242.600  0.500  0.810310  112.836  50.1806  11.6151
  9243.587  9243.600  0.500  0.849159  112.811  48.2577  10.0567
  9244.582  9244.600  0.500  0.901841  112.795  45.7749  8.147399
  9245.580  9245.600  0.500  0.970550  112.773  42.7268  5.998519
  9246.590  9246.600  0.500  1.051783  112.75  39.3853  3.955642
  9247.597  9247.600  0.500  1.124159  112.723  36.6267  2.604593
  9248.596  9248.600  0.500  1.166635  112.693  35.0942  2.044760
  9249.592  9249.600  0.500  1.184792  112.672  34.4563  1.827760
  9250.588  9250.600  0.500  1.186312  112.652  34.3977  1.733446
  9251.588  9251.600  0.500  1.169264  112.607  34.9754  1.861352
  9252.599  9252.600  0.500  1.133941  112.587  36.2264  2.327011
  9253.599  9253.600  0.500  1.087496  112.546  37.9348  3.119304
  9254.604  9254.600  0.500  1.042116  112.532  39.6908  4.066127
  9255.601  9255.600  0.500  1.006942  112.497  41.0991  4.912353
  9256.591  9256.600  0.500  0.982298  112.467  42.1131  5.556102
  9257.592  9257.600  0.500  0.962730  112.448  42.938  6.076403
  9258.601  9258.600  0.500  0.947311  112.413  43.5918  6.493655
  9259.603  9259.600  0.500  0.936585  112.382  44.0499  6.791348
  9260.597  9260.600  0.500  0.929842  112.351  44.3356  6.998568
  9261.596  9261.600  0.500  0.925870  112.321  44.5001  7.134462
  9262.591  9262.600  0.500  0.924122  112.285  44.5637  7.201844
  9263.601  9263.600  0.500  0.924189  112.589  44.6813  7.202975
  9264.607  9264.600  0.500  0.925743  112.556  44.599  7.099522
  9265.607  9265.600  0.500  0.927944  112.542  44.4951  6.963557
  9266.606  9266.600  0.500  0.929708  112.515  44.4062  6.866970
  9267.595  9267.600  0.500  0.931474  112.478  44.3133  6.823066
  9268.591  9268.600  0.500  0.932326  112.451  44.2647  6.827503
  9270.095  9270.090  0.500  0.932166  112.408  44.2549  6.921733
  9272.119  9272.110  0.500  0.930217  112.363  44.3238  7.112706
  9274.225  9274.220  0.500  0.930194  112.272  44.2888  7.166867
  9276.421  9276.400  0.500  0.935612  111.709  43.8286  6.943047
  9278.674  9278.660  0.500  0.943388  112.246  43.6979  6.693058
  9281.002  9280.990  0.500  0.951964  112.18  43.2997  6.386332
  9283.421  9283.400  0.500  0.960907  112.118  42.8902  6.028917
  9285.889  9285.880  0.500  0.968625  112.052  42.5354  5.734776
  9288.455  9288.440  0.500  0.970321  111.989  42.4394  5.684710
  9291.090  9291.080  0.500  0.964029  111.866  42.6603  5.872057
  9293.805  9293.800  0.500  0.953822  111.792  43.0695  6.155702
  9296.592  9296.590  0.500  0.943915  111.747  43.4811  6.405500
  9299.459  9299.450  0.500  0.936052  108.527  42.5613  6.381480
  9302.391  9302.390  0.500  0.932035  111.73  43.9939  6.703485
  9305.422  9305.410  0.500  0.928610  111.524  44.0634  6.817572
  9308.512  9308.510  0.500  0.927362  111.607  44.1511  6.899968
  9311.693  9311.680  0.500  0.927647  111.52  44.1042  6.941483
  9314.936  9314.930  0.500  0.928619  111.43  44.026  6.951825
  9318.257  9318.250  0.500  0.929435  111.338  43.9536  6.926267
  9321.662  9321.650  0.500  0.930083  111.223  43.8798  6.863817
  9325.138  9325.130  0.500  0.931030  111.119  43.7972  6.766104
  9328.694  9328.680  0.500  0.931556  111.104  43.7685  6.667993
  9332.322  9332.310  0.500  0.931766  111.007  43.7209  6.590762
  9336.020  9336.010  0.500  0.932403  110.92  43.6587  6.545984
  9339.800  9339.790  0.500  0.932916  110.826  43.5994  6.534965
  9343.658  9343.650  0.500  0.933040  110.727  43.5553  6.537632
  9347.587  9347.580  0.500  0.932762  110.635  43.5312  6.532011
  9351.596  9351.590  0.500  0.931745  110.529  43.5338  6.534789
  9355.698  9355.680  0.500  0.930180  110.431  43.563  6.564295
  9359.853  9359.840  0.500  0.928087  110.331  43.6148  6.597905
  9364.092  9364.080  0.500  0.925724  110.228  43.6772  6.628433
  9368.398  9368.390  0.500  0.922621  110.121  43.7705  6.665133
  9372.781  9372.780  0.500  0.919517  110.015  43.8644  6.736819
  9377.263  9377.250  0.500  0.916925  109.924  43.9416  6.834410
  9381.810  9381.790  0.500  0.915146  109.818  43.9774  6.926120
  9386.434  9386.410  0.500  0.914160  109.698  43.9728  6.976654
[...]
  9410.650  9410.650  0.500  0.914323  109.139  43.7418  6.743505
  9415.724  9415.720  0.500  0.912836  109.021  43.7593  6.699443
  9420.883  9420.870  0.500  0.911005  108.901  43.7912  6.710535
  9426.122  9426.100  0.500  0.908687  108.782  43.845  6.792344
  9431.439  9431.410  0.500  0.906748  108.668  43.8839  6.883291
  9436.820  9436.790  0.500  0.905322  107.995  43.6746  6.897839
  9442.276  9442.250  0.500  0.903800  108.397  43.904  6.950247
  9447.805  9447.780  0.500  0.902716  108.284  43.9058  6.944320
  9453.413  9453.390  0.500  0.901569  108.151  43.9021  6.937925
  9459.098  9459.070  0.500  0.900192  108.011  43.9055  6.930831
  9464.863  9464.840  0.500  0.898655  107.884  43.9213  6.929068
  9470.694  9470.670  0.500  0.896870  107.746  43.9434  6.968959
  9476.613  9476.590  0.500  0.894897  107.594  43.9683  7.025748
  9482.609  9482.580  0.500  0.892877  107.458  44.0014  7.079226
  9488.668  9488.650  0.500  0.891177  107.313  44.0167  7.102843
  9494.832  9494.790  0.500  0.889835  107.168  44.0163  7.099709
  9501.000  9501.010  0.500  0.888725  107.007  43.9991  7.081176
  9507.290  9507.300  0.500  0.887757  106.844  43.9748  7.070975
  9513.666  9513.670  0.500  0.886553  106.682  43.9608  7.063758
  9520.126  9520.120  0.500  0.884921  106.534  43.9717  7.074250
  9526.665  9526.650  0.500  0.883091  106.372  43.9852  7.098684
  9533.256  9533.250  0.500  0.881156  106.214  44.0049  7.124945
  9539.943  9539.920  0.500  0.879073  106.056  44.0309  7.164942
  9546.687  9546.670  0.500  0.877019  105.897  44.0552  7.213878
  9553.511  9553.500  0.500  0.874993  105.734  44.0767  7.260084
  9560.425  9560.410  0.500  0.873060  105.563  44.0906  7.276120
  9567.404  9567.390  0.500  0.871372  105.398  44.096  7.285390
  9574.465  9574.450  0.500  0.869617  105.224  44.1006  7.293107
  9581.595  9581.580  0.500  0.867723  105.051  44.1118  7.315783
  9588.805  9588.790  0.500  0.865677  104.869  44.1254  7.351921
  9596.097  9596.080  0.500  0.863749  104.697  44.1382  7.379228
  9603.464  9603.440  0.500  0.861694  104.516  44.1523  7.401414
  9610.898  9610.880  0.500  0.859680  104.34  44.167  7.418834
  9618.408  9618.390  0.500  0.857989  104.108  44.1432  7.434568
  9626.010  9625.980  0.500  0.855946  103.956  44.1691  7.470124
  9633.681  9633.650  0.500  0.854003  103.653  44.1256  7.482654
  9641.416  9641.390  0.500  0.852163  103.591  44.1808  7.504706
  9649.236  9649.210  0.500  0.850318  103.172  44.0833  7.500943
  9657.134  9657.110  0.500  0.848019  103.202  44.1976  7.540910
  9665.094  9665.080  0.500  0.846002  102.984  44.193  7.569105
  9673.139  9673.130  0.500  0.843657  102.783  44.2106  7.600922
  9681.276  9681.250  0.500  0.841639  102.97  44.3803  7.666285
  9689.471  9689.450  0.500  0.839380  102.772  44.3953  7.702761
  9697.765  9697.730  0.500  0.837111  102.562  44.4051  7.745222
  9706.102  9706.080  0.500  0.835085  102.339  44.3986  7.779369
  9714.540  9714.510  0.500  0.832739  102.18  44.4337  7.803344
  9723.026  9723.010  0.500  0.830679  101.945  44.4227  7.809552
  9731.608  9731.590  0.500  0.828325  101.743  44.4393  7.821016
  9740.271  9740.250  0.500  0.826058  101.534  44.4487  7.846240
  9749.021  9748.990  0.500  0.823840  101.293  44.4417  7.873533
  9757.823  9757.800  0.500  0.821391  101.067  44.4512  7.894296
  9766.703  9766.680  0.500  0.819281  100.842  44.4461  7.904254
  9775.662  9775.640  0.500  0.817110  100.661  44.4627  7.943128
  9784.712  9784.680  0.500  0.815381  100.081  44.2831  7.954520
  9789.262  9789.230  0.500  0.813879  100.277  44.4365  8.004951

File: Lu-L3-LutetiumOxide.xdi
# XDI/1.0 BlueSky/1.10.0 BMM/2023-1.0-py310-tiled
# Beamline.name: BMM (06BM) -- Beamline for Materials Measurement (NIST)
# Beamline.xray_source: NSLS-II three-pole wiggler
# Beamline.collimation: paraboloid mirror, 5 nm Rh on 30 nm Pt
# Beamline.focusing: not in use
# Beamline.harmonic_rejection: flat mirror, Pt stripe, pitch = 7.0 mrad relative to beam
# Beamline.software: Bluesky 1.10.0, Ophyd 1.7.0, DataBroker 2.0.0b13, Python 3.10.8, 2023-1.0-py310-tiled
# Detector.I0: 10 cm N2
# Detector.I1: 25 cm N2
# Detector.I2: 25 cm N2
# Element.symbol: Lu
# Element.edge: L3
# Element.reference: Lu
# Element.reference_material: Lu2O3
# Facility.name: NSLS-II
# Facility.energy: 3.0
# Facility.current: 399.5
# Facility.mode: top-off
# Facility.GUP: 301027
# Facility.SAF: 310583
# Facility.cycle: 2023-2
# Mono.name: Si(111)
# Mono.d_spacing: 3.13519
# Mono.encoder_resolution: 0.0000050 deg/ct
# Mono.angle_offset: 16.0754 deg
# Mono.scan_mode: pseudo channel cut
# Mono.scan_type: step
# Mono.direction: forward in energy
# Sample.name: Lu2O3
# Sample.prep: PEG pellet
# Sample.x: 109.138 mm
# Sample.y: 153.150 mm
# Sample.SDD_position: 205.000 mm
# Scan.experimenters: Bruce Ravel
# Scan.edge_energy: 9244.1
# Scan.start_time: 2023-05-28T16:22:06
# Scan.end_time: 2023-05-28T16:30:12
# Scan.transient_id: 78833
# Scan.uid: 6c8b3984-5d01-40f2-9543-0493543933b8
# Scan.plot_hint: ln(It/Ir)  --  ln($6/$7)
# Column.1: energy eV
# Column.2: requested_energy eV
# Column.3: measurement_time seconds
# Column.4: xmu
# Column.5: I0 nA
# Column.6: It nA
# Column.7: Ir nA
# ///////////
# sample courtesy Martin Stennett, University of Sheffield
# -----------
# energy  requested_energy  measurement_time  xmu  I0  It  Ir
  9044.107  9044.100  0.500  1.443225  116.904  164.296  38.801
  9074.166  9074.100  0.500  1.430389  116.493  164.285  39.2996
  9104.133  9104.100  0.500  1.417978  114.99  162.663  39.3974
  9134.125  9134.100  0.500  1.405348  115.344  163.692  40.1506
  9164.124  9164.100  0.500  1.393772  114.816  163.479  40.5654
  9194.115  9194.100  0.500  1.384683  114.326  163.274  40.8844
  9216.095  9216.100  0.500  1.385958  113.861  162.972  40.7566
  9222.089  9222.100  0.500  1.391122  113.714  162.888  40.5259
  9228.091  9228.100  0.500  1.402826  113.596  162.822  40.0381
  9234.134  9234.100  0.500  1.432541  113.451  162.712  38.8397
  9234.968  9235.000  0.500  1.439665  113.786  163.19  38.6772
  9235.869  9235.900  0.500  1.448884  113.794  163.209  38.3268
  9236.770  9236.800  0.500  1.460042  113.794  163.25  37.9109
  9237.686  9237.700  0.500  1.473735  113.743  163.189  37.3814
  9238.584  9238.600  0.500  1.490462  113.708  163.166  36.7561
  9239.489  9239.500  0.500  1.511826  113.684  163.133  35.9719
  9240.394  9240.400  0.500  1.539360  113.67  163.126  34.9935
  9241.293  9241.300  0.500  1.574004  113.64  163.069  33.7901
  9242.184  9242.200  0.500  1.619466  113.613  163.047  32.2841
  9243.071  9243.100  0.500  1.683556  113.585  163.02  30.2749
  9244.022  9244.000  0.500  1.779801  113.574  163.032  27.4989
  9244.943  9244.900  0.500  1.917128  113.544  162.992  23.9646
  9245.813  9245.800  0.500  2.106950  113.473  162.934  19.8142
  9246.727  9246.700  0.500  2.389308  113.457  162.946  14.941
  9247.608  9247.600  0.500  2.719458  113.431  162.905  10.7371
  9248.511  9248.500  0.500  2.988718  113.425  162.921  8.203415
  9249.418  9249.400  0.500  3.133530  113.397  162.889  7.096059
  9250.296  9250.300  0.500  3.211052  113.375  162.886  6.566614
  9251.204  9251.200  0.500  3.254309  113.344  162.815  6.285880
  9252.104  9252.100  0.500  3.209149  113.323  162.81  6.576059
  9253.005  9253.000  0.500  3.053717  113.295  162.804  7.681622
  9253.906  9253.900  0.500  2.830375  113.275  162.784  9.602773
  9254.807  9254.800  0.500  2.612136  113.243  162.732  11.9409
  9255.704  9255.700  0.500  2.445168  113.222  162.737  14.1112
  9256.609  9256.600  0.500  2.329320  113.216  162.723  15.843
  9257.496  9257.500  0.500  2.248038  113.161  162.668  17.1788
  9258.394  9258.400  0.500  2.187898  113.128  162.644  18.2409
  9259.300  9259.300  0.500  2.144041  113.12  162.645  19.0588
  9260.194  9260.200  0.500  2.112682  113.098  162.637  19.665
  9261.115  9261.100  0.500  2.089835  113.069  162.614  20.1166
  9261.999  9262.000  0.500  2.074199  113.035  162.55  20.4255
  9262.901  9262.900  0.500  2.065031  113.012  162.546  20.6132
  9263.804  9263.800  0.500  2.063594  112.993  162.527  20.6404
  9264.692  9264.700  0.500  2.071055  112.965  162.491  20.4824
  9265.588  9265.600  0.500  2.085789  112.956  162.514  20.1857
  9266.491  9266.500  0.500  2.100899  112.92  162.462  19.8766
  9267.399  9267.400  0.500  2.110137  112.9  162.447  19.692
  9268.306  9268.300  0.500  2.113389  112.879  162.431  19.6262
  9269.102  9269.100  0.500  2.111664  112.854  162.426  19.6594
  9272.119  9272.110  0.500  2.077987  112.791  162.35  20.3232
  9275.323  9275.300  0.500  2.064186  112.658  162.22  20.5892
  9278.670  9278.660  0.500  2.108480  112.692  162.348  19.7126
  9282.195  9282.180  0.500  2.167692  112.598  162.26  18.5693
  9285.893  9285.880  0.500  2.240804  112.529  162.194  17.2531
  9289.765  9289.750  0.500  2.250232  112.417  162.114  17.0828
  9293.809  9293.800  0.500  2.196861  111.792  161.26  17.9243
  9298.023  9298.010  0.500  2.151282  112.162  161.884  18.8328
  9302.387  9302.390  0.500  2.126014  112.605  162.574  19.3971
  9306.954  9306.950  0.500  2.103016  111.68  161.326  19.6959
  9311.689  9311.680  0.500  2.090012  112.444  162.53  20.1026
  9316.594  9316.580  0.500  2.085322  112.336  162.412  20.1825
  9321.655  9321.650  0.500  2.092926  112.203  162.345  20.0214
  9326.897  9326.890  0.500  2.111949  112.153  162.35  19.6446
  9332.307  9332.310  0.500  2.130782  112.032  162.237  19.2648
  9337.892  9337.890  0.500  2.137979  111.919  162.166  19.1182
  9343.650  9343.650  0.500  2.136157  111.787  162.056  19.1401
  9349.589  9349.580  0.500  2.136503  111.669  161.965  19.1227
  9355.687  9355.680  0.500  2.132322  111.574  161.915  19.1969
  9361.951  9361.950  0.500  2.126045  111.424  161.806  19.3048
  9368.395  9368.390  0.500  2.121047  111.292  161.718  19.3909
  9374.999  9375.000  0.500  2.106979  111.158  161.646  19.657
  9381.795  9381.790  0.500  2.086995  111.017  161.533  20.0397
  9388.764  9388.750  0.500  2.077865  110.897  161.468  20.2154
  9395.889  9395.870  0.500  2.088314  110.742  161.359  19.9918
  9403.193  9403.170  0.500  2.095137  110.611  161.283  19.8464
  9410.654  9410.650  0.500  2.104823  110.466  161.16  19.6402
  9418.299  9418.290  0.500  2.113816  110.31  161.081  19.4547
  9426.118  9426.100  0.500  2.102253  110.162  160.986  19.6694
  9434.104  9434.090  0.500  2.084139  110.01  160.863  20.0136
  9442.257  9442.250  0.500  2.077410  109.817  160.724  20.1314
  9450.591  9450.570  0.500  2.078645  109.677  160.621  20.0936
  9459.075  9459.070  0.500  2.079597  109.5  160.482  20.0571
  9467.783  9467.750  0.500  2.078785  109.314  160.33  20.0544
  9476.597  9476.590  0.500  2.067594  109.125  160.189  20.2623
  9485.630  9485.600  0.500  2.057531  108.946  160.07  20.452
  9494.805  9494.790  0.500  2.056222  108.762  159.93  20.4608
  9504.181  9504.150  0.500  2.058872  108.561  159.76  20.385
  9513.682  9513.670  0.500  2.059474  108.374  159.635  20.3569
  9523.394  9523.370  0.500  2.056616  108.174  159.493  20.3969
  9533.272  9533.250  0.500  2.051375  107.973  159.311  20.4808
  9543.312  9543.290  0.500  2.043124  107.762  159.157  20.6305
  9553.519  9553.500  0.500  2.032950  107.547  158.991  20.8197
  9563.915  9563.890  0.500  2.029428  107.337  158.792  20.867
  9574.473  9574.450  0.500  2.027729  107.124  158.642  20.8827
  9585.209  9585.180  0.500  2.022377  106.901  158.471  20.9721
  9596.097  9596.080  0.500  2.015765  106.673  158.283  21.0862
  9607.173  9607.150  0.500  2.011334  106.447  158.084  21.1532
  9618.416  9618.390  0.500  2.007479  105.987  157.566  21.1654
  9629.834  9629.810  0.500  2.000940  105.953  157.671  21.3184
  9641.392  9641.390  0.500  1.997776  105.704  157.444  21.3551
  9653.168  9653.150  0.500  1.994223  105.445  157.217  21.4003
  9665.102  9665.080  0.500  1.988398  105.185  156.978  21.4926
  9677.192  9677.180  0.500  1.981729  104.91  156.715  21.6002
  9689.462  9689.450  0.500  1.974166  104.649  156.483  21.732
  9701.912  9701.890  0.500  1.965839  104.376  156.24  21.8797
  9714.524  9714.510  0.500  1.960432  104.133  156.032  21.9689
  9727.301  9727.290  0.500  1.958571  103.843  155.791  21.9759
  9740.263  9740.250  0.500  1.954493  103.567  155.533  22.0291
  9753.393  9753.380  0.500  1.948748  103.276  155.252  22.116
  9766.711  9766.680  0.500  1.945696  102.961  154.952  22.1408
  9780.166  9780.150  0.500  1.938349  102.648  154.652  22.2608
  9793.821  9793.800  0.500  1.929176  102.187  154.114  22.3878
  9807.643  9807.610  0.500  1.925895  102.504  154.775  22.5578
  9821.622  9821.600  0.500  1.924310  101.565  153.533  22.4122
  9835.784  9835.760  0.500  1.916219  101.274  153.259  22.554
  9850.118  9850.090  0.500  1.905598  101.528  153.834  22.8803
  9864.620  9864.590  0.500  1.896825  101.207  153.52  23.0348
  9879.285  9879.260  0.500  1.890902  100.852  153.123  23.1117
  9894.138  9894.100  0.500  1.887541  100.524  152.812  23.1425
  9909.160  9909.120  0.500  1.882603  100.176  152.46  23.2034
  9924.335  9924.300  0.500  1.875968  99.8084  152.047  23.2946
  9939.677  9939.660  0.500  1.866380  99.5404  151.842  23.4873
  9955.217  9955.190  0.500  1.856963  97.7891  149.337  23.3185
  9970.920  9970.890  0.500  1.850632  98.7801  151.028  23.7323
  9986.819  9986.760  0.500  1.844809  98.2437  150.398  23.7713
  10002.844  10002.810  0.500  1.839912  98.1373  150.403  23.8887
  10019.052  10019.020  0.500  1.832705  97.6305  149.81  23.9666
  10035.440  10035.410  0.500  1.823545  96.4962  148.234  23.9328
  10052.009  10051.970  0.500  1.815215  97.001  149.205  24.291
  10068.731  10068.700  0.500  1.807596  96.6173  148.784  24.4077
  10085.628  10085.600  0.500  1.801304  96.2062  148.328  24.4865
  10096.986  10096.960  0.500  1.797015  95.948  148.05  24.5457