Folder: webxdiviewer/xdidata/Mn (part 4)

File: Mn-K-Pennantite.xdi
# XDI/1.0 BlueSky/1.5.3
# Beamline.name: 6BM
# Beamline.xray_source: NSLS-II three-pole wiggler
# Beamline.collimation: paraboloid mirror, 5 nm Rh on 30 nm Pt
# Beamline.focusing: not in use
# Beamline.harmonic_rejection: flat mirror, Si stripe, pitch = 7.0 mrad relative to beam
# Detector.i0: 10 cm N2
# Detector.i1: 25 cm N2
# Detector.i2: 25 cm N2
# Element.symbol: Mn
# Element.edge: K
# Facility.name: NSLS-II
# Facility.energy: 3.0
# Facility.current: 399.8
# Facility.mode: top-off
# Facility.gup: 305081
# Facility.saf: 305123
# Mono.name: Si(111)
# Mono.d_spacing: 3.13532
# Mono.encoder_resolution: 0.0000050 deg/ct
# Mono.angle_offset: 16.0581 deg
# Mono.scan_mode: fixed exit
# Mono.scan_type: step
# Mono.direction: forward in energy
# Sample.name: Mn9Al6Si5O20(OH)16
# Sample.prep: Powder in polyethylene glycol pellet
# Sample.x_position: -120.140 mm
# Sample.y_position: 112.312 mm
# Scan.experimenters: Neil Hyatt, Martin Stennett, Lucy Mottram
# Scan.edge_energy: 6539.0
# Scan.start_time: 2019-11-11T17:15:46
# Scan.end_time: 2019-11-12T03:18:48
# Scan.transient_id: 17905
# Scan.uid: 9c8bfa9d-e248-4b07-a703-e2380b455f0d
# Scan.plot_hint: ln(I0/It)  --  ln($5/$6)
# Scan.sequence: merge of 3 scans
# Column.1: energy eV
# Column.2: requested_energy eV
# Column.3: measurement_time seconds
# Column.4: mutrans
# Column.5: i0
# Column.6: itrans
# Column.7: irefer
# /////
#  Harstigen Mine, Persberg, Sweden
# -----
# energy   requested_energy   measurement_time   mutrans   i0   itrans   irefer
6339 6339 0.500000 2.048874 89.6305 11.5517 2.650540
6379.02 6379 0.500000 2.000270 90.4483 12.2377 2.887011
6419.01 6419 0.500000 1.952955 91.1669 12.9325 3.134474
6459.01 6459 0.500000 1.906755 91.3664 13.5736 3.376680
6499 6499 0.500000 1.861540 92.2422 14.3375 3.655839
6515 6515 0.500000 1.844098 92.4778 14.6271 3.762749
6523.08 6523 0.500000 1.835461 92.7223 14.7938 3.818283
6529.09 6529.1 0.500000 1.829338 92.7885 14.8943 3.845937
6529.53 6529.5 0.500000 1.828925 92.76 14.8963 3.846017
6529.89 6529.9 0.500000 1.828524 92.7474 14.8998 3.846469
6530.29 6530.3 0.500000 1.828163 92.7386 14.9038 3.847174
6530.69 6530.7 0.500000 1.827691 92.7278 14.909 3.846640
6531.11 6531.1 0.500000 1.827316 92.7265 14.9146 3.847896
6531.49 6531.5 0.500000 1.826910 92.7199 14.9193 3.847340
6531.9 6531.9 0.500000 1.826643 92.7119 14.9222 3.847124
6532.31 6532.3 0.500000 1.826220 92.713 14.9287 3.846297
6532.7 6532.7 0.500000 1.825848 92.7108 14.9339 3.845330
6533.1 6533.1 0.500000 1.825476 92.7005 14.9378 3.844441
6533.5 6533.5 0.500000 1.825208 92.7157 14.9442 3.842371
6533.9 6533.9 0.500000 1.824769 92.7073 14.9494 3.839246
6534.3 6534.3 0.500000 1.824415 92.7193 14.9566 3.836379
6534.7 6534.7 0.500000 1.824175 92.716 14.9597 3.830333
6535.1 6535.1 0.500000 1.823871 92.7114 14.9635 3.821713
6535.5 6535.5 0.500000 1.823628 92.6994 14.9652 3.810019
6535.9 6535.9 0.500000 1.823331 92.6828 14.967 3.792233
6536.3 6536.3 0.500000 1.823094 92.7295 14.9781 3.767016
6536.7 6536.7 0.500000 1.822978 92.8039 14.9919 3.724443
6537.1 6537.1 0.500000 1.822789 92.7978 14.9938 3.644463
6537.5 6537.5 0.500000 1.822900 92.7898 14.9908 3.523112
6537.9 6537.9 0.500000 1.823122 92.8992 15.0052 3.394549
6538.3 6538.3 0.500000 1.823745 92.8921 14.9948 3.289533
6538.7 6538.7 0.500000 1.824508 92.8991 14.9844 3.212565
6539.1 6539.1 0.500000 1.824654 92.9079 14.9836 3.155807
6539.5 6539.5 0.500000 1.824464 93.0157 15.0038 3.113941
6539.9 6539.9 0.500000 1.823859 93.0064 15.0113 3.076521
6540.3 6540.3 0.500000 1.822934 93.0065 15.0252 3.046360
6540.7 6540.7 0.500000 1.822503 93.0011 15.0308 3.023012
6541.1 6541.1 0.500000 1.822491 93.0005 15.0309 3.009182
6541.5 6541.5 0.500000 1.822694 92.9939 15.0268 3.003811
6541.9 6541.9 0.500000 1.823282 92.9927 15.0178 2.997802
6542.3 6542.3 0.500000 1.824298 92.9868 15.0016 2.982149
6542.7 6542.7 0.500000 1.826104 92.9825 14.974 2.956303
6543.1 6543.1 0.500000 1.829293 92.963 14.9227 2.921658
6543.5 6543.5 0.500000 1.834111 92.9571 14.85 2.883555
6543.9 6543.9 0.500000 1.840496 92.9549 14.7551 2.842723
6544.3 6544.3 0.500000 1.848202 92.9475 14.6412 2.798823
6544.7 6544.7 0.500000 1.856169 92.9418 14.5237 2.753298
6545.1 6545.1 0.500000 1.863841 92.9359 14.4118 2.706547
6545.5 6545.5 0.500000 1.872367 92.9281 14.2887 2.656734
6545.9 6545.9 0.500000 1.883318 92.9065 14.1303 2.598290
6546.3 6546.3 0.500000 1.898477 92.9008 13.9151 2.527181
6546.7 6546.7 0.500000 1.917631 92.9004 13.6511 2.447395
6547.1 6547.1 0.500000 1.938988 92.8888 13.3631 2.364449
6547.5 6547.5 0.500000 1.961654 92.8793 13.0611 2.279531
6547.9 6547.9 0.500000 1.985073 92.8796 12.7589 2.196034
6548.3 6548.3 0.500000 2.008129 92.8733 12.4677 2.115190
6548.7 6548.7 0.500000 2.028973 92.8645 12.2093 2.041388
6549.1 6549.1 0.500000 2.043491 92.8323 12.0285 1.982987
6549.51 6549.5 0.500000 2.050211 92.9299 11.9607 1.944415
6549.9 6549.9 0.500000 2.050624 92.9207 11.9546 1.918331
6550.3 6550.3 0.500000 2.048159 92.9192 11.984 1.898773
6550.7 6550.7 0.500000 2.043960 92.8926 12.0316 1.884446
6551.1 6551.1 0.500000 2.037909 92.9962 12.1173 1.877291
6551.49 6551.5 0.500000 2.030808 92.9799 12.201 1.869648
6551.9 6551.9 0.500000 2.024115 92.9573 12.2808 1.861991
6552.3 6552.3 0.500000 2.018182 92.9501 12.3529 1.854565
6552.7 6552.7 0.500000 2.012144 93.0472 12.4406 1.851032
6553.1 6553.1 0.500000 2.004371 93.0313 12.5354 1.850494
6553.5 6553.5 0.500000 1.993945 93.0189 12.6652 1.856440
6553.9 6553.9 0.500000 1.981820 93.022 12.8208 1.869711
6554.3 6554.3 0.500000 1.970520 93.0122 12.9643 1.884968
6554.7 6554.7 0.500000 1.961533 93.0039 13.0805 1.899885
6555.1 6555.1 0.500000 1.954839 93.014 13.1697 1.913840
6555.5 6555.5 0.500000 1.950091 93.0076 13.2313 1.928043
6555.9 6555.9 0.500000 1.946657 92.9759 13.2724 1.942941
6556.3 6556.3 0.500000 1.944104 92.9876 13.308 1.958048
6556.7 6556.7 0.500000 1.942466 92.9675 13.327 1.973489
6557.1 6557.1 0.500000 1.942304 92.9776 13.3305 1.987528
6557.5 6557.5 0.500000 1.944102 92.9656 13.3049 1.995529
6557.9 6557.9 0.500000 1.947578 92.9691 13.2588 2.000044
6558.3 6558.3 0.500000 1.952698 92.9578 13.1898 1.998852
6558.7 6558.7 0.500000 1.958934 92.9687 13.1096 1.993693
6559.09 6559.1 0.500000 1.965421 92.9568 13.0235 1.987591
6559.5 6559.5 0.500000 1.971422 92.9458 12.9436 1.979974
6559.9 6559.9 0.500000 1.975633 92.9187 12.8852 1.973357
6560.3 6560.3 0.500000 1.977977 92.8417 12.8446 1.969095
6560.7 6560.7 0.500000 1.978681 92.7404 12.8215 1.965569
6561.1 6561.1 0.500000 1.978779 92.7622 12.8233 1.964722
6561.5 6561.5 0.500000 1.978405 92.8825 12.8447 1.966890
6561.9 6561.9 0.500000 1.977704 92.9116 12.8577 1.966867
6562.3 6562.3 0.500000 1.976512 92.9276 12.8752 1.967938
6562.7 6562.7 0.500000 1.974187 93.0389 12.9206 1.972827
6563.1 6563.1 0.500000 1.971279 93.0346 12.9579 1.976225
6563.5 6563.5 0.500000 1.967932 93.0367 13.0018 1.981001
6563.9 6563.9 0.500000 1.964141 93.0379 13.0507 1.986828
6564.3 6564.3 0.500000 1.960021 93.1353 13.1185 1.996481
6564.7 6564.7 0.500000 1.955207 93.1397 13.1823 2.004539
6565.1 6565.1 0.500000 1.949720 93.1305 13.254 2.015344
6565.5 6565.5 0.500000 1.943951 93.222 13.3443 2.028639
6565.9 6565.9 0.500000 1.938168 93.2264 13.4223 2.039826
6566.3 6566.3 0.500000 1.932791 93.229 13.4946 2.051620
6566.7 6566.7 0.500000 1.928183 93.2018 13.5529 2.060237
6567.1 6567.1 0.500000 1.924321 93.1915 13.6034 2.068528
6567.5 6567.5 0.500000 1.920806 93.2024 13.653 2.077127
6567.9 6567.9 0.500000 1.917156 93.186 13.7004 2.085303
6568.3 6568.3 0.500000 1.913655 93.1927 13.7496 2.093662
6568.7 6568.7 0.500000 1.910054 93.1947 13.7997 2.102762
6570.09 6570.08 0.710000 1.897987 132.319 19.8305 3.027006
6574.59 6574.58 0.760000 1.884498 141.716 21.5274 3.282612
6579.4 6579.39 0.810000 1.891196 151.093 22.7988 3.438492
6584.52 6584.51 0.860000 1.910436 160.451 23.7495 3.551811
6589.94 6589.93 0.910000 1.912074 169.854 25.0999 3.822786
6595.66 6595.65 0.960000 1.918261 179.327 26.3365 4.084248
6601.69 6601.68 1.010000 1.899880 188.388 28.1804 4.419044
6608.02 6608.01 1.060000 1.889672 198.294 29.9666 4.683147
6614.66 6614.65 1.110000 1.880223 207.684 31.6833 4.921411
6621.61 6621.6 1.160000 1.865378 217.149 33.6227 5.238020
6628.85 6628.84 1.210000 1.856780 226.621 35.3926 5.567619
6636.41 6636.4 1.260000 1.850887 236.27 37.1176 5.874668
6644.27 6644.26 1.310000 1.844312 246.05 38.9092 6.188193
6652.42 6652.42 1.360000 1.836697 255.579 40.725 6.550227
6660.9 6660.89 1.410000 1.830674 265.41 42.547 6.896086
6669.67 6669.66 1.460000 1.821615 274.983 44.4828 7.216002
6678.74 6678.74 1.510000 1.813958 284.525 46.3798 7.540992
6688.12 6688.12 1.560000 1.801031 294.037 48.554 7.954361
6697.8 6697.8 1.610000 1.786270 303.654 50.8877 8.438956
6707.79 6707.79 1.660000 1.777123 313.1 52.9524 8.879731
6718.09 6718.09 1.710000 1.767392 322.662 55.103 9.299504
6728.7 6728.69 1.760000 1.756436 332.098 57.3396 9.727043
6739.6 6739.6 1.810000 1.744336 341.457 59.6728 10.1807
6750.81 6750.81 1.860000 1.734028 350.632 61.9112 10.6602
6762.32 6762.32 1.910000 1.722411 359.707 64.2554 11.1754
6774.13 6774.14 1.960000 1.711408 368.803 66.609 11.6964
6786.27 6786.27 2.010000 1.697209 377.996 69.2458 12.2885
6798.7 6798.7 2.060000 1.683192 387.407 71.9715 12.8869
6811.43 6811.43 2.110000 1.670578 372.181 70.0203 12.6272
6824.48 6824.47 2.160000 1.658347 402.916 76.7362 13.945
6837.82 6837.82 2.210000 1.646279 412.53 79.5197 14.5901
6851.47 6851.47 2.260000 1.633045 420.959 82.2258 15.2424
6865.43 6865.42 2.310000 1.618931 429.037 84.9948 15.9219
6879.69 6879.68 2.360000 1.605815 438.452 88.0068 16.6519
6894.24 6894.24 2.410000 1.592064 447.871 91.1419 17.4069
6909.11 6909.11 2.460000 1.577630 456.433 94.2349 18.1613
6924.29 6924.28 2.510000 1.563102 464.56 97.3166 18.9366
6939.76 6939.76 2.560000 1.548698 472.868 100.494 19.7519
6955.54 6955.54 2.610000 1.534268 481.526 103.822 20.6137
6971.64 6971.63 2.660000 1.519839 490.328 107.257 21.5225
6988.02 6988.02 2.710000 1.504870 498.894 110.775 22.462
7004.72 7004.72 2.760000 1.490087 506.778 114.202 23.3915
7021.73 7021.72 2.810000 1.475141 514.493 117.687 24.3491
7039.04 7039.03 2.860000 1.459848 521.98 121.239 25.345
7056.64 7056.64 2.910000 1.444691 529.244 124.804 26.3658
7074.56 7074.56 2.960000 1.430092 532.403 127.395 27.2001
7092.78 7092.78 3.010000 1.416289 544.444 132.087 28.5032
7111.31 7111.3 3.060000 1.426947 550.924 132.241 28.8264
7130.13 7130.13 3.110000 2.067602 531.873 67.2748 14.7568
7149.28 7149.27 3.160000 1.860990 546.803 85.0349 18.866
7168.71 7168.71 3.210000 2.029225 556.867 73.1921 16.4142
7188.45 7188.45 3.260000 1.973813 561.99 78.0736 17.7006
7208.51 7208.5 3.310000 1.921072 570.551 83.5558 19.1506
7228.86 7228.86 3.360000 1.916346 577.605 84.9892 19.6951
7249.52 7249.52 3.410000 1.911378 582.742 86.1724 20.1885
7270.49 7270.48 3.460000 1.871519 591.03 90.9524 21.5437
7281.08 7281.08 3.490000 1.863230 584.796 90.7417 21.6111

File: Mn-K-Petedunnite.xdi
# XDI/1.0 BlueSky/1.10.0 BMM/2023-1.0-py310-tiled
# Beamline.name: BMM (06BM) -- Beamline for Materials Measurement (NIST)
# Beamline.xray_source: NSLS-II three-pole wiggler
# Beamline.collimation: paraboloid mirror, 5 nm Rh on 30 nm Pt
# Beamline.focusing: not in use
# Beamline.harmonic_rejection: flat mirror, Si stripe, pitch = 7.0 mrad relative to beam
# Beamline.software: Bluesky 1.10.0, Ophyd 1.7.0, DataBroker 2.0.0b13, Python 3.10.8, 2023-1.0-py310-tiled
# Detector.I0: 10 cm N2
# Detector.I1: 25 cm N2
# Detector.I2: 25 cm N2
# Detector.fluorescence: SII Vortex ME4 (4-element silicon drift)
# Detector.deadtime_correction: Xspress3
# Element.symbol: Mn
# Element.edge: K
# Element.reference: Mn
# Element.reference_material: Mn metal powder
# Facility.name: NSLS-II
# Facility.energy: 3.0
# Facility.current: 398.9
# Facility.mode: top-off
# Facility.GUP: 301027
# Facility.SAF: 310583
# Facility.cycle: 2023-2
# Mono.name: Si(111)
# Mono.d_spacing: 3.13519
# Mono.encoder_resolution: 0.0000050 deg/ct
# Mono.angle_offset: 16.0754 deg
# Mono.scan_mode: pseudo channel cut
# Mono.scan_type: step
# Mono.direction: forward in energy
# Sample.name: Ca(Zn,Mn,Fe,Mg)Si2O6
# Sample.prep: powder on tape
# Sample.x: 119.711 mm
# Sample.y: 114.376 mm
# Sample.SDD_position: 25.000 mm
# Scan.experimenters: Bruce Ravel
# Scan.edge_energy: 6539.0
# Scan.start_time: 2023-06-27T11:13:01
# Scan.end_time: 2023-06-27T11:29:25
# Scan.transient_id: 85125
# Scan.uid: 5b04dda5-23be-4ab9-b0a8-2d0e256397f4
# Scan.plot_hint: (Mn1+Mn2+Mn3+Mn4)/I0  --  ($8+$9+$10+$11)/$5
# Column.1: energy eV
# Column.2: requested_energy eV
# Column.3: measurement_time seconds
# Column.4: xmu
# Column.5: I0 nA
# Column.6: It nA
# Column.7: Ir nA
# Column.8: Mn1
# Column.9: Mn2
# Column.10: Mn3
# Column.11: Mn4
# ///////////
# sample courtesy Martin Stennett, University of Sheffield
# -----------
# energy  requested_energy  measurement_time  xmu  I0  It  Ir  Mn1  Mn2  Mn3  Mn4
  6339.003  6339.000  2.000  6.793716  585.743  136.944  6.576862  1237.2  1001.06  774.048  967.064
  6379.010  6379.000  2.000  6.705983  591.326  143.844  7.286903  1247.24  958.059  838.054  922.063
  6419.005  6419.000  2.000  6.669667  597.939  151.195  8.071952  1248.87  1003.07  774.052  962.069
  6459.001  6459.000  2.000  6.600328  593.403  155.863  8.744752  1151.46  1002.07  805.056  958.072
  6498.984  6499.000  2.000  6.739759  599.025  163.217  9.542531  1191.07  1005.07  840.061  1001.08
  6514.998  6515.000  2.000  6.913484  599.437  165.769  9.751866  1259.98  1108.08  857.065  919.075
  6523.001  6523.000  2.000  6.968678  599.472  166.933  9.747980  1284.3  998.074  869.067  1026.09
  6529.292  6529.300  2.000  6.962081  599.332  167.905  9.570482  1172.36  1078.08  911.068  1011.08
  6530.497  6530.500  2.000  7.137019  599.001  167.939  9.481341  1262.84  1022.08  943.072  1047.09
  6531.701  6531.700  2.000  7.336283  598.899  168.067  9.368498  1342.45  1126.09  879.068  1046.09
  6532.898  6532.900  2.000  7.413690  598.892  168.256  9.212508  1266.75  1119.09  947.073  1107.09
  6534.102  6534.100  2.000  7.563765  598.909  168.41  8.974789  1309.76  1148.09  997.077  1075.09
  6535.307  6535.300  2.000  7.567793  598.813  168.57  8.587200  1291.44  1165.09  965.074  1110.09
  6536.500  6536.500  2.000  7.659793  598.867  168.81  7.867140  1341.94  1120.09  974.075  1151.1
  6537.701  6537.700  2.000  7.956401  598.744  168.933  5.949711  1383.58  1177.09  1049.08  1154.1
  6538.902  6538.900  2.000  8.554913  598.829  169.109  2.303269  1471.64  1307.1  1140.09  1204.1
  6540.104  6540.100  2.000  9.733517  598.714  169.295  1.162757  1706.26  1491.12  1254.1  1376.12
  6541.306  6541.300  2.000  9.365565  598.882  169.526  0.800728  1597.55  1421.11  1205.1  1385.12
  6542.503  6542.500  2.000  9.769259  598.726  169.689  0.721988  1656.77  1464.11  1373.11  1355.12
  6543.699  6543.700  2.000  11.4296  598.836  169.855  0.644287  1852.03  1724.13  1617.13  1651.14
  6544.903  6544.900  2.000  17.3747  600.663  170.626  0.527835  2809.7  2714.22  2468.21  2444.22
  6546.105  6546.100  2.000  28.589  600.657  170.702  0.464130  4666.02  4341.38  4228.38  3936.37
  6547.299  6547.300  2.000  41.9465  600.544  170.703  0.370951  6534.89  6447.61  6202.61  6005.62
  6548.509  6548.500  2.000  51.5787  600.434  170.764  0.272562  8259.24  7843.79  7693.79  7172.77
  6549.704  6549.700  2.000  63.4997  600.397  170.902  0.196944  10028.9  9764.06  9376.05  8956.04
  6550.903  6550.900  2.000  80.4521  600.406  171.005  0.143369  12807.7  12285.4  11944.5  11266.4
  6552.104  6552.100  2.000  88.9764  600.336  171.051  0.107449  14063.8  13725.7  13354.7  12271.6
  6553.300  6553.300  2.000  80.002  600.274  171.236  0.082409  12774.9  12184.4  12129.5  10934.4
  6554.505  6554.500  2.000  75.8707  600.59  171.547  0.066593  12114.2  11589.3  11285.3  10578.3
  6555.706  6555.700  2.000  73.5166  600.921  171.877  0.060151  11627.9  11250.3  10996.3  10303.2
  6556.905  6556.900  2.000  64.7419  601.335  172.3  0.062436  10377.4  9830.08  9592.09  9132.07
  6558.105  6558.100  2.000  54.6618  601.668  172.63  0.071492  8618.69  8403.88  8168.88  7696.86
  6559.301  6559.300  2.000  51.1439  601.916  172.81  0.081031  8176.92  7780.79  7701.8  7124.78
  6560.506  6560.500  2.000  50.2606  602.067  173.09  0.087362  8104.95  7602.77  7466.78  7085.77
  6561.708  6561.700  2.000  49.1285  601.814  173.214  0.088571  7817.96  7562.77  7350.76  6834.74
  6562.903  6562.900  2.000  47.4113  601.31  173.284  0.086566  7574.72  7288.73  7075.72  6569.7
  6564.000  6564.000  2.000  47.8795  601.884  173.566  0.084917  7582.69  7446.75  7100.74  6687.73
  6568.069  6568.060  2.000  49.6182  602.091  174.239  0.081315  7875.36  7594.77  7475.78  6928.76
  6572.428  6572.420  2.000  44.8023  604.307  175.62  0.082440  7165.25  6842.69  6707.69  6358.69
  6577.088  6577.080  2.000  44.3324  604.591  176.396  0.079717  7181.91  6761.67  6517.67  6341.68
  6582.061  6582.050  2.000  48.2053  604.686  177.144  0.072575  7746.79  7334.75  7272.77  6794.76
  6587.341  6587.330  2.000  54.2376  604.567  177.909  0.069684  8531.62  8445.9  8123.88  7688.88
  6592.918  6592.910  2.000  55.535  605.175  178.938  0.081519  8902.58  8569.93  8398.93  7736.91
  6598.803  6598.790  2.000  54.5427  604.87  179.726  0.094425  8751.58  8478.91  8040.89  7719.9
  6604.988  6604.980  2.000  52.2667  604.964  180.787  0.096469  8385.92  8091.86  7797.85  7343.84
  6611.485  6611.480  2.000  52.7685  605.346  181.834  0.088031  8436.57  8118.87  7900.88  7486.88
  6618.286  6618.280  2.000  51.6413  605.611  182.961  0.082562  8284.97  7946.85  7794.86  7247.84
  6625.389  6625.380  2.000  50.6806  605.905  184.154  0.086744  8177.1  7768.84  7412.81  7348.86
  6632.797  6632.790  2.000  50.9238  606.141  185.495  0.093640  8213.45  7845.85  7529.84  7277.85
  6640.513  6640.510  2.000  51.589  606.378  186.712  0.090395  8287.84  8045.88  7625.85  7322.87
  6648.527  6648.520  2.000  52.3607  606.638  188.074  0.094785  8356.29  8110.9  7777.88  7518.9
  6656.860  6656.850  2.000  52.5025  606.823  189.366  0.104451  8325.99  8179.92  7885.9  7467.9
  6665.484  6665.480  2.000  53.3555  607.123  190.865  0.107658  8572.54  8377.95  7996.92  7445.9
  6674.416  6674.410  2.000  53.6239  607.35  192.327  0.102074  8574.63  8333.95  8016.93  7642.94
  6683.659  6683.650  2.000  53.1693  607.651  193.889  0.101208  8554.55  8143.94  7997.94  7611.95
  6693.195  6693.190  2.000  51.9924  607.816  195.49  0.106410  8455.11  7876.9  7896.92  7372.91
  6703.047  6703.040  2.000  51.9577  609.961  197.728  0.116429  8357.39  7968.92  7847.92  7517.94
  6713.189  6713.190  2.000  52.7257  610.017  199.385  0.123348  8413.68  8217.97  8024.96  7506.95
  6723.652  6723.650  2.000  53.1024  610.188  201.063  0.124536  8580.53  8211.98  8044.98  7564.97
  6734.420  6734.410  2.000  52.8332  610.437  202.913  0.125658  8572.37  8324.01  7814.96  7539.99
  6745.470  6745.470  2.000  52.8483  610.629  204.724  0.128361  8510.73  8403.03  7976.99  7379.97
  6756.852  6756.850  2.000  53.2406  610.791  206.607  0.135864  8460.85  8348.03  8136.02  7574.01
  6768.524  6768.520  2.000  53.3291  610.916  208.528  0.138788  8486.49  8255.04  8241.05  7597.03
  6780.506  6780.500  2.000  53.504  611.175  210.556  0.146800  8586.15  8368.05  8130.03  7616.03
  6792.796  6792.790  2.000  52.9636  610.717  212.46  0.156972  8567.66  8174.04  8089.04  7515.03
  6805.382  6805.380  2.000  53.472  610.996  214.547  0.162742  8535.94  8176.05  8155.06  7804.09
  6818.273  6818.270  2.000  53.2674  609.853  216.241  0.164096  8628.11  8333.08  7970.04  7554.05
  6831.474  6831.470  2.000  53.4182  608.655  218.012  0.168346  8473.98  8280.09  8082.06  7677.09
  6844.981  6844.980  2.000  53.768  607.391  219.724  0.175637  8593.97  8361.11  8051.07  7652.1
  6858.791  6858.790  2.000  53.7788  607.973  222.184  0.184692  8680.74  8333.12  8168.11  7514.09
  6872.902  6872.900  2.000  52.9404  608.169  224.53  0.194317  8556.42  8181.11  8018.09  7441.09
  6887.323  6887.320  2.000  53.8251  608.026  226.864  0.203267  8562.68  8377.15  8122.12  7665.14
  6902.048  6902.050  2.000  53.1897  607.643  229.162  0.210914  8348.9  8344.16  8162.13  7465.12
  6917.078  6917.080  2.000  53.7631  606.447  231.167  0.217551  8504.97  8338.18  8082.14  7679.18
  6932.414  6932.410  2.000  54.0493  606.662  233.765  0.226792  8567.11  8466.22  8122.16  7634.19
  6948.051  6948.050  2.000  53.6974  606.615  236.335  0.235417  8575.04  8314.22  8128.19  7556.2
  6963.990  6963.990  2.000  54.8082  605.824  238.674  0.246811  8557.39  8639.28  8215.2  7792.25
  6980.243  6980.240  2.000  54.7323  604.861  240.953  0.259038  8710.69  8386.26  8277.23  7731.26
  6996.794  6996.790  2.000  54.1432  604.073  243.399  0.270366  8536.72  8425.27  8205.22  7539.23
  7013.647  7013.650  2.000  55.2258  603.105  245.789  0.280502  8696.03  8567.33  8291.28  7752.3
  7030.812  7030.810  2.000  54.7425  602.255  248.252  0.292154  8765.14  8456.31  8076.24  7671.29
  7048.282  7048.280  2.000  55.1517  601.145  250.698  0.304928  8682.2  8414.33  8302.3  7755.34
  7066.051  7066.050  2.000  55.1128  600.046  253.231  0.317916  8569.2  8421.35  8202.29  7877.38
  7084.134  7084.130  2.000  55.3621  595.975  254.472  0.330765  8569.31  8397.36  8200.32  7827.39
  7102.514  7102.510  2.000  56.0783  597.385  258.142  0.347256  8693.14  8611.42  8376.37  7819.4
  7121.206  7121.200  2.000  56.3405  594.494  259.53  0.357471  8681.59  8522.5  8409.47  7880.51
  7140.190  7140.190  2.000  56.4641  591.098  260.642  0.368459  8596.96  8581.64  8271.58  7925.64
  7159.497  7159.490  2.000  56.6239  590.218  263.503  0.384932  8669.62  8543.64  8412.6  7794.63
  7179.093  7179.090  2.000  56.7939  587.719  265.555  0.401669  8633.86  8581.68  8368.63  7794.66