Folder: webxdiviewer/xdidata/Mn

Note: xdidata/README.md
# bmm-standards
A pretty webpage for BMM's collection of common XAFS materials

[BMM's common materials collection](./BMM-standards.html)

Plotting of the data will happen soon.

Periodic table adapted from [some guy named Daniel](https://codepen.io/gooseofmusic/pen/PjKdNQ)

[This](https://www.coderstool.com/scss-to-css) is a helpful tool for
dealing with Sassy CSS.

File: Mn-Bixbyite.xdi
# XDI/1.0 BlueSky/1.10.0 BMM/2023-1.0-py310-tiled
# Beamline.name: BMM (06BM) -- Beamline for Materials Measurement (NIST)
# Beamline.xray_source: NSLS-II three-pole wiggler
# Beamline.collimation: paraboloid mirror, 5 nm Rh on 30 nm Pt
# Beamline.focusing: not in use
# Beamline.harmonic_rejection: flat mirror, Si stripe, pitch = 7.0 mrad relative to beam
# Beamline.software: Bluesky 1.10.0, Ophyd 1.7.0, DataBroker 2.0.0b13, Python 3.10.8, 2023-1.0-py310-tiled
# Detector.I0: 10 cm N2
# Detector.I1: 25 cm N2
# Detector.I2: 25 cm N2
# Element.symbol: Mn
# Element.edge: K
# Element.reference: Mn
# Element.reference_material: Mn metal powder
# Facility.name: NSLS-II
# Facility.energy: 3.0
# Facility.current: 399.4
# Facility.mode: top-off
# Facility.GUP: 123456
# Facility.SAF: 301027
# Facility.cycle: 2023-2
# Mono.name: Si(111)
# Mono.d_spacing: 3.13519
# Mono.encoder_resolution: 0.0000050 deg/ct
# Mono.angle_offset: 16.0754 deg
# Mono.scan_mode: pseudo channel cut
# Mono.scan_type: step
# Mono.direction: forward in energy
# Sample.name: Mn2O3
# Sample.prep: powder on tape
# Sample.x: 123.848 mm
# Sample.y: 114.690 mm
# Sample.SDD_position: 205.000 mm
# Scan.experimenters: Bruce Ravel
# Scan.edge_energy: 6539.0
# Scan.start_time: 2023-05-08T11:20:18
# Scan.end_time: 2023-05-08T11:28:20
# Scan.transient_id: 75368
# Scan.uid: 0b910304-90be-4c4d-b50a-b0a22d34e52a
# Scan.plot_hint: ln(I0/It)  --  ln($5/$6)
# Column.1: energy eV
# Column.2: requested_energy eV
# Column.3: measurement_time seconds
# Column.4: xmu
# Column.5: I0 nA
# Column.6: It nA
# Column.7: Ir nA
# ///////////
# Welcome to BMM
# -----------
# energy  requested_energy  measurement_time  xmu  I0  It  Ir
  6339.001  6339.000  0.500  2.388038  150.443  13.8121  0.707224
  6369.006  6369.000  0.500  2.345515  151.133  14.4782  0.771544
  6399.010  6399.000  0.500  2.304076  151.735  15.1509  0.839877
  6429.012  6429.000  0.500  2.263297  152.845  15.8969  0.914974
  6459.015  6459.000  0.500  2.223368  152.903  16.5508  0.987681
  6489.704  6489.000  0.500  2.184339  153.657  17.2945  1.066511
  6510.982  6511.000  0.500  2.157591  154.082  17.8124  1.113301
  6516.987  6517.000  0.500  2.150963  154.168  17.9408  1.120294
  6522.992  6523.000  0.500  2.144151  154.256  18.0737  1.120132
  6528.998  6529.000  0.500  2.138798  154.327  18.1791  1.100499
  6529.884  6529.900  0.500  2.138830  154.303  18.1757  1.092492
  6530.784  6530.800  0.500  2.137355  154.301  18.2023  1.084478
  6531.691  6531.700  0.500  2.137330  154.311  18.204  1.072253
  6532.586  6532.600  0.500  2.136435  154.323  18.2217  1.058413
  6533.487  6533.500  0.500  2.136548  154.307  18.2178  1.037222
  6534.392  6534.400  0.500  2.136430  154.306  18.2197  1.009078
  6535.296  6535.300  0.500  2.136773  154.323  18.2155  0.964564
  6536.193  6536.200  0.500  2.137266  154.309  18.2049  0.891585
  6537.090  6537.100  0.500  2.139813  154.319  18.1598  0.733647
  6537.998  6538.000  0.500  2.145538  154.307  18.0547  0.418144
  6538.900  6538.900  0.500  2.165624  154.288  17.6935  0.190854
  6539.796  6539.800  0.500  2.180625  154.284  17.4296  0.124439
  6540.696  6540.700  0.500  2.181899  154.303  17.4095  0.093574
  6541.598  6541.600  0.500  2.190819  154.299  17.2545  0.080865
  6542.498  6542.500  0.500  2.199407  154.282  17.1051  0.078425
  6543.393  6543.400  0.500  2.206723  154.288  16.981  0.069008
  6544.294  6544.300  0.500  2.215468  154.289  16.8333  0.058533
  6545.199  6545.200  0.500  2.235086  154.287  16.5061  0.052103
  6546.098  6546.100  0.500  2.279106  154.264  15.7929  0.044334
  6546.994  6547.000  0.500  2.355512  154.275  14.6322  0.034182
  6547.900  6547.900  0.500  2.445576  154.282  13.3726  0.024935
  6548.800  6548.800  0.500  2.524436  154.279  12.3583  0.018389
  6549.697  6549.700  0.500  2.618755  154.27  11.2453  0.013188
  6550.601  6550.600  0.500  2.701654  154.255  10.3496  0.009698
  6551.501  6551.500  0.500  2.782807  154.24  9.541997  0.007349
  6552.398  6552.400  0.500  2.880721  154.243  8.652133  0.005473
  6553.302  6553.300  0.500  2.995534  154.241  7.713586  0.004161
  6554.204  6554.200  0.500  3.094978  154.229  6.982857  0.003395
  6555.100  6555.100  0.500  3.163178  154.253  6.523552  0.002883
  6556.001  6556.000  0.500  3.198337  154.289  6.299624  0.002914
  6556.903  6556.900  0.500  3.209413  154.272  6.229539  0.003042
  6557.804  6557.800  0.500  3.213896  154.265  6.201408  0.003189
  6558.699  6558.700  0.500  3.212298  154.281  6.211974  0.003572
  6559.604  6559.600  0.500  3.185357  154.28  6.381549  0.003849
  6560.500  6560.500  0.500  3.143935  154.288  6.651778  0.004194
  6561.397  6561.400  0.500  3.112696  154.205  6.859174  0.004314
  6562.303  6562.300  0.500  3.099065  153.964  6.942462  0.004355
  6563.205  6563.200  0.500  3.091574  154.251  7.007686  0.004169
  6564.005  6564.000  0.500  3.083869  154.291  7.063735  0.004106
  6567.031  6567.010  0.500  3.034438  154.308  7.422482  0.004232
  6570.192  6570.200  0.500  3.014013  154.332  7.576811  0.004441
  6573.554  6573.560  0.500  3.013753  154.36  7.580156  0.004344
  6577.080  6577.080  0.500  2.950908  154.445  8.076254  0.004424
  6580.786  6580.780  0.500  2.871710  154.453  8.742368  0.004379
  6584.655  6584.650  0.500  2.821094  154.478  9.197766  0.004332
  6588.704  6588.700  0.500  2.808489  154.965  9.343769  0.004683
  6592.918  6592.910  0.500  2.822624  155.026  9.216286  0.005080
  6597.298  6597.290  0.500  2.874572  155.082  8.752863  0.005414
  6601.858  6601.850  0.500  2.912437  155.079  8.427503  0.005504
  6606.587  6606.580  0.500  2.919798  155.12  8.367874  0.005214
  6611.493  6611.480  0.500  2.903888  155.189  8.505869  0.004888
  6616.557  6616.550  0.500  2.880236  155.183  8.709087  0.004794
  6621.795  6621.790  0.500  2.865206  155.165  8.839958  0.004938
  6627.220  6627.210  0.500  2.874481  155.21  8.760886  0.005037
  6632.801  6632.790  0.500  2.875865  155.216  8.749129  0.005338
  6638.561  6638.550  0.500  2.862350  155.24  8.869546  0.005303
  6644.491  6644.480  0.500  2.860263  155.258  8.889082  0.005226
  6650.591  6650.580  0.500  2.843484  155.275  9.040507  0.005532
  6656.862  6656.850  0.500  2.802956  155.281  9.414781  0.005930
  6663.305  6663.290  0.500  2.766066  155.284  9.768736  0.006510
  6669.907  6669.900  0.500  2.755200  155.288  9.875754  0.006391
  6676.700  6676.690  0.500  2.767922  155.258  9.749046  0.005951
  6683.651  6683.650  0.500  2.781339  155.282  9.620541  0.006073
  6690.782  6690.770  0.500  2.783247  155.251  9.600295  0.006039
  6698.076  6698.070  0.500  2.772384  155.212  9.702744  0.006310
  6705.557  6705.550  0.500  2.749205  155.183  9.928376  0.006965
  6713.200  6713.190  0.500  2.723000  155.164  10.1908  0.007220
  6721.011  6721.000  0.500  2.713446  155.111  10.2851  0.007335
  6729.000  6728.990  0.500  2.705831  155.1  10.363  0.007404
  6737.161  6737.150  0.500  2.695378  155.016  10.4662  0.007492
  6745.481  6745.470  0.500  2.691195  154.897  10.502  0.007545
  6753.977  6753.970  0.500  2.680493  154.842  10.6112  0.008122
  6762.664  6762.650  0.500  2.657781  154.764  10.8495  0.008291
  6771.497  6771.490  0.500  2.631485  154.693  11.1335  0.008556
  6780.526  6780.500  0.500  2.614066  154.659  11.3266  0.009149
  6789.705  6789.690  0.500  2.606070  154.62  11.4147  0.009534
  6799.060  6799.050  0.500  2.599329  154.069  11.4509  0.009899
  6808.588  6808.570  0.500  2.593069  154.104  11.5255  0.009939
  6818.287  6818.270  0.500  2.582336  153.953  11.6384  0.009938
  6828.161  6828.150  0.500  2.565153  153.619  11.8144  0.010317
  6838.201  6838.190  0.500  2.546937  153.33  12.009  0.010721
  6848.409  6848.400  0.500  2.531771  153.141  12.1775  0.011133
  6858.804  6858.790  0.500  2.517217  153.082  12.3512  0.011546
  6869.356  6869.350  0.500  2.501745  153.049  12.5411  0.012173
  6880.088  6880.080  0.500  2.488173  152.972  12.7061  0.012679
  6890.989  6890.980  0.500  2.475561  152.827  12.8552  0.013001
  6902.060  6902.050  0.500  2.461366  152.637  13.0228  0.013415
  6913.309  6913.290  0.500  2.444309  152.316  13.2189  0.013804
  6924.718  6924.710  0.500  2.427513  151.983  13.4134  0.014433
  6936.301  6936.290  0.500  2.412176  151.751  13.5999  0.014864
  6948.061  6948.050  0.500  2.399203  151.498  13.7545  0.015244
  6959.992  6959.980  0.500  2.385503  151.28  13.9242  0.015735
  6972.086  6972.080  0.500  2.370620  151.07  14.1134  0.016583
  6984.357  6984.350  0.500  2.356181  150.734  14.2868  0.017239
  6996.802  6996.790  0.500  2.341390  150.429  14.4703  0.017700
  7009.413  7009.410  0.500  2.325019  150.085  14.6755  0.018411
  7022.191  7022.190  0.500  2.307614  149.754  14.9002  0.019177
  7035.161  7035.150  0.500  2.291220  149.365  15.1072  0.019883
  7048.291  7048.280  0.500  2.274864  148.939  15.3126  0.020455
  7061.588  7061.580  0.500  2.259887  148.56  15.504  0.021217
  7075.068  7075.050  0.500  2.245176  147.055  15.5744  0.021821
  7088.712  7088.700  0.500  2.230121  147.678  15.8776  0.022839
  7102.502  7102.510  0.500  2.213653  147.261  16.0957  0.023639
  7116.496  7116.500  0.500  2.196812  147.089  16.3499  0.024510
  7130.656  7130.660  0.500  2.180809  146.068  16.4985  0.025264
  7145.028  7144.990  0.500  2.164714  145.617  16.7143  0.026066
  7159.523  7159.490  0.500  2.148499  145.202  16.9391  0.027055
  7174.179  7174.160  0.500  2.133642  144.603  17.1217  0.028078
  7189.006  7189.000  0.500  2.117735  144.07  17.3322  0.028997
  7204.001  7204.020  0.500  2.101115  143.415  17.5425  0.030199
  7219.185  7219.200  0.500  2.084146  142.755  17.7607  0.031129
  7234.550  7234.560  0.500  2.066965  142.264  18.0062  0.032705
  7250.069  7250.090  0.500  2.050550  141.623  18.2218  0.033703
  7265.790  7265.790  0.500  2.034350  140.087  18.3185  0.034737
  7281.648  7281.660  0.500  2.018951  141.134  18.7418  0.036433
  7297.713  7297.710  0.500  2.003009  140.506  18.9583  0.037775
  7313.903  7313.920  0.500  1.986675  140.056  19.2088  0.039249
  7330.286  7330.310  0.500  1.970013  139.495  19.4533  0.040783
  7346.880  7346.870  0.500  1.953250  138.898  19.6974  0.042560
  7363.583  7363.600  0.500  1.937106  138.273  19.9279  0.043759
  7380.479  7380.500  0.500  1.920243  137.673  20.1789  0.045699
  7391.837  7391.860  0.500  1.909469  137.25  20.3348  0.046762

File: Mn-Braunite.xdi
# XDI/1.0 BlueSky/1.10.0 BMM/2023-1.0-py310-tiled
# Beamline.name: BMM (06BM) -- Beamline for Materials Measurement (NIST)
# Beamline.xray_source: NSLS-II three-pole wiggler
# Beamline.collimation: paraboloid mirror, 5 nm Rh on 30 nm Pt
# Beamline.focusing: not in use
# Beamline.harmonic_rejection: flat mirror, Si stripe, pitch = 7.0 mrad relative to beam
# Beamline.software: Bluesky 1.10.0, Ophyd 1.7.0, DataBroker 2.0.0b13, Python 3.10.8, 2023-1.0-py310-tiled
# Detector.I0: 10 cm N2
# Detector.I1: 25 cm N2
# Detector.I2: 25 cm N2
# Element.symbol: Mn
# Element.edge: K
# Element.reference: Mn
# Element.reference_material: Mn metal powder
# Facility.name: NSLS-II
# Facility.energy: 3.0
# Facility.current: 399.6
# Facility.mode: top-off
# Facility.GUP: 123456
# Facility.SAF: 301027
# Facility.cycle: 2023-2
# Mono.name: Si(111)
# Mono.d_spacing: 3.13519
# Mono.encoder_resolution: 0.0000050 deg/ct
# Mono.angle_offset: 16.0754 deg
# Mono.scan_mode: pseudo channel cut
# Mono.scan_type: step
# Mono.direction: forward in energy
# Sample.name: Mn6O8(SiO4)
# Sample.prep: PEG pellet
# Sample.x: 123.848 mm
# Sample.y: 114.690 mm
# Sample.SDD_position: 205.000 mm
# Scan.experimenters: Bruce Ravel
# Scan.edge_energy: 6539.0
# Scan.start_time: 2023-05-08T11:46:13
# Scan.end_time: 2023-05-08T11:54:10
# Scan.transient_id: 75371
# Scan.uid: 16e80592-699e-4016-84db-69fb0064d1ee
# Scan.plot_hint: ln(I0/It)  --  ln($5/$6)
# Column.1: energy eV
# Column.2: requested_energy eV
# Column.3: measurement_time seconds
# Column.4: xmu
# Column.5: I0 nA
# Column.6: It nA
# Column.7: Ir nA
# ///////////
# Braunite, Manganese Mine, Copper Harbor, Keweenaw Co., Michigan, USA; 0.2x abs. @Mn
# -----------
# energy  requested_energy  measurement_time  xmu  I0  It  Ir
  6338.994  6339.000  0.500  2.079048  150.533  18.824  0.968646
  6369.001  6369.000  0.500  2.040645  151.238  19.6526  1.051799
  6399.009  6399.000  0.500  2.003064  151.852  20.488  1.140581
  6429.016  6429.000  0.500  1.966465  152.402  21.3287  1.232836
  6459.008  6459.000  0.500  1.930150  152.447  22.1241  1.325758
  6490.632  6489.000  0.500  1.894159  153.131  23.0377  1.426458
  6510.986  6511.000  0.500  1.870368  153.579  23.6615  1.484807
  6516.989  6517.000  0.500  1.863798  153.672  23.8319  1.494154
  6522.992  6523.000  0.500  1.858185  153.77  23.9812  1.492455
  6528.996  6529.000  0.500  1.852545  153.813  24.1237  1.466070
  6529.884  6529.900  0.500  1.852071  153.794  24.132  1.456252
  6530.784  6530.800  0.500  1.851322  154.226  24.218  1.449154
  6531.691  6531.700  0.500  1.850914  154.41  24.2568  1.436290
  6532.586  6532.600  0.500  1.850230  154.427  24.276  1.416471
  6533.486  6533.500  0.500  1.850327  154.436  24.2751  1.389307
  6534.391  6534.400  0.500  1.850012  154.412  24.279  1.351384
  6535.294  6535.300  0.500  1.849459  154.398  24.2903  1.295035
  6536.196  6536.200  0.500  1.850027  154.416  24.2793  1.198745
  6537.091  6537.100  0.500  1.851011  154.419  24.2559  0.995504
  6537.998  6538.000  0.500  1.855112  154.426  24.1578  0.580190
  6538.899  6538.900  0.500  1.866958  154.407  23.8703  0.265776
  6539.794  6539.800  0.500  1.877070  154.405  23.6299  0.173113
  6540.694  6540.700  0.500  1.878456  154.409  23.5977  0.129816
  6541.598  6541.600  0.500  1.884932  154.405  23.4448  0.111487
  6542.500  6542.500  0.500  1.891311  154.408  23.2961  0.108684
  6543.399  6543.400  0.500  1.898014  154.388  23.1374  0.096013
  6544.298  6544.300  0.500  1.905832  154.379  22.956  0.081301
  6545.200  6545.200  0.500  1.923083  154.386  22.5644  0.072568
  6546.100  6546.100  0.500  1.960720  154.385  21.7308  0.062429
  6546.996  6547.000  0.500  2.030320  154.369  20.2676  0.048660
  6547.898  6547.900  0.500  2.127480  154.365  18.3906  0.035375
  6548.802  6548.800  0.500  2.210687  154.354  16.9211  0.025752
  6549.701  6549.700  0.500  2.281109  154.351  15.7702  0.018865
  6550.603  6550.600  0.500  2.348447  154.345  14.7427  0.013987
  6551.501  6551.500  0.500  2.430092  154.352  13.5874  0.010643
  6552.402  6552.400  0.500  2.519471  154.35  12.4255  0.008003
  6553.296  6553.300  0.500  2.613939  154.337  11.3045  0.006189
  6554.204  6554.200  0.500  2.693321  154.335  10.4417  0.004999
  6555.102  6555.100  0.500  2.745417  154.333  9.911491  0.004574
  6555.999  6556.000  0.500  2.764127  154.338  9.728082  0.004280
  6556.903  6556.900  0.500  2.757790  154.324  9.789062  0.004545
  6557.803  6557.800  0.500  2.750476  154.31  9.860014  0.005172
  6558.700  6558.700  0.500  2.750426  154.316  9.860900  0.005581
  6559.602  6559.600  0.500  2.742914  154.32  9.935521  0.005964
  6560.502  6560.500  0.500  2.716380  154.328  10.2032  0.006421
  6561.397  6561.400  0.500  2.681251  154.255  10.563  0.006676
  6562.306  6562.300  0.500  2.654166  153.996  10.8348  0.006548
  6563.207  6563.200  0.500  2.641381  154.294  10.9954  0.006590
  6564.000  6564.000  0.500  2.639602  154.333  11.0178  0.006479
  6567.035  6567.010  0.500  2.643654  154.349  10.9744  0.006352
  6570.192  6570.200  0.500  2.621718  154.37  11.2193  0.006447
  6573.557  6573.560  0.500  2.582071  154.392  11.6747  0.006717
  6577.082  6577.080  0.500  2.538266  154.437  12.2011  0.006810
  6580.782  6580.780  0.500  2.477756  154.466  12.9646  0.006563
  6584.650  6584.650  0.500  2.433636  154.487  13.5512  0.006469
  6588.702  6588.700  0.500  2.423673  154.491  13.6873  0.006667
  6592.916  6592.910  0.500  2.441077  154.526  13.4541  0.007467
  6597.298  6597.290  0.500  2.483169  154.563  12.9026  0.007895
  6601.861  6601.850  0.500  2.498147  154.569  12.7113  0.008297
  6606.581  6606.580  0.500  2.499009  154.59  12.7021  0.007938
  6611.489  6611.480  0.500  2.487508  154.651  12.8541  0.007394
  6616.557  6616.550  0.500  2.474773  154.667  13.0202  0.007324
  6621.798  6621.790  0.500  2.472546  154.634  13.0464  0.007198
  6627.220  6627.210  0.500  2.483754  154.675  12.9045  0.007559
  6632.795  6632.790  0.500  2.478961  154.714  12.9697  0.007977
  6638.561  6638.550  0.500  2.462652  154.718  13.1833  0.007744
  6644.486  6644.480  0.500  2.446449  154.718  13.3987  0.007761
  6650.589  6650.580  0.500  2.428562  154.737  13.6422  0.008391
  6656.858  6656.850  0.500  2.408868  155.234  13.9581  0.009083
  6663.300  6663.290  0.500  2.391872  155.248  14.1987  0.009466
  6669.910  6669.900  0.500  2.381844  155.249  14.3419  0.009406
  6676.700  6676.690  0.500  2.384332  155.227  14.3042  0.008876
  6683.655  6683.650  0.500  2.384132  155.247  14.309  0.008808
  6690.780  6690.770  0.500  2.375593  155.228  14.4299  0.009177
  6698.081  6698.070  0.500  2.364379  155.192  14.5892  0.009743
  6705.557  6705.550  0.500  2.354174  155.153  14.7351  0.010504
  6713.204  6713.190  0.500  2.344447  155.125  14.8766  0.010777
  6721.011  6721.000  0.500  2.334292  155.077  15.0237  0.010892
  6728.995  6728.990  0.500  2.325659  155.054  15.1517  0.010978
  6737.165  6737.150  0.500  2.312518  154.973  15.3441  0.011093
  6745.481  6745.470  0.500  2.300662  154.887  15.5185  0.011232
  6753.980  6753.970  0.500  2.287668  154.811  15.7138  0.012044
  6762.659  6762.650  0.500  2.272820  154.771  15.9447  0.012288
  6771.497  6771.490  0.500  2.256145  154.682  16.2035  0.012675
  6780.516  6780.500  0.500  2.240921  154.617  16.4451  0.013294
  6789.707  6789.690  0.500  2.230535  154.622  16.6173  0.013926
  6799.060  6799.050  0.500  2.222428  154.073  16.6932  0.014433
  6808.582  6808.570  0.500  2.215635  154.134  16.8136  0.014708
  6818.283  6818.270  0.500  2.202741  153.929  17.0091  0.014937
  6828.163  6828.150  0.500  2.188430  153.617  17.2193  0.015130
  6838.201  6838.190  0.500  2.174852  153.35  17.4244  0.015782
  6848.411  6848.400  0.500  2.162244  153.132  17.6204  0.016285
  6858.808  6858.790  0.500  2.148835  153.097  17.8541  0.016849
  6869.360  6869.350  0.500  2.134522  153.063  18.1075  0.017735
  6880.094  6880.080  0.500  2.122277  152.954  18.3176  0.018218
  6890.993  6890.980  0.500  2.109588  152.827  18.5361  0.018971
  6902.060  6902.050  0.500  2.094952  152.654  18.7881  0.019752
  6913.303  6913.290  0.500  2.080062  152.31  19.0269  0.020252
  6924.722  6924.710  0.500  2.066009  151.972  19.2534  0.020930
  6936.305  6936.290  0.500  2.053128  151.736  19.4728  0.021418
  6948.057  6948.050  0.500  2.041181  151.506  19.6769  0.022152
  6959.999  6959.980  0.500  2.029463  151.274  19.8784  0.023024
  6972.094  6972.080  0.500  2.015613  151.053  20.1261  0.023735
  6984.351  6984.350  0.500  2.000934  150.754  20.3832  0.024903
  6996.794  6996.790  0.500  1.986619  150.494  20.6415  0.025721
  7009.408  7009.410  0.500  1.972152  150.139  20.8929  0.026625
  7022.191  7022.190  0.500  1.957935  149.845  21.1505  0.027524
  7035.155  7035.150  0.500  1.944490  149.46  21.3818  0.028341
  7048.280  7048.280  0.500  1.930743  149.116  21.6278  0.029299
  7061.588  7061.580  0.500  1.916281  148.782  21.8938  0.030261
  7075.066  7075.050  0.500  1.901937  147.356  21.9972  0.031248
  7088.718  7088.700  0.500  1.887075  147.987  22.4222  0.032829
  7102.523  7102.510  0.500  1.872953  147.566  22.6764  0.033924
  7116.146  7116.500  0.500  1.860333  146.916  22.8632  0.034496
  7130.690  7130.660  0.500  1.845332  145.852  23.0406  0.035532
  7144.976  7144.990  0.500  1.831181  145.436  23.3024  0.036880
  7159.478  7159.490  0.500  1.816016  145.044  23.5947  0.038231
  7174.148  7174.160  0.500  1.801446  144.437  23.8408  0.039527
  7189.037  7189.000  0.500  1.786331  143.933  24.1194  0.041049
  7204.032  7204.020  0.500  1.771592  143.259  24.363  0.042452
  7219.192  7219.200  0.500  1.756992  142.619  24.6108  0.044066
  7234.563  7234.560  0.500  1.742337  142.126  24.8878  0.045632
  7250.071  7250.090  0.500  1.727710  141.469  25.1378  0.047126
  7265.772  7265.790  0.500  1.712986  139.871  25.2224  0.048550
  7281.639  7281.660  0.500  1.698438  140.988  25.7964  0.050735
  7297.693  7297.710  0.500  1.683752  140.348  26.0593  0.052749
  7313.907  7313.920  0.500  1.669490  140.492  26.4608  0.054774
  7330.292  7330.310  0.500  1.654254  139.928  26.7591  0.056759
  7346.857  7346.870  0.500  1.639909  139.317  27.0271  0.058916
  7363.583  7363.600  0.500  1.625078  138.712  27.3118  0.060827
  7380.520  7380.500  0.500  1.610316  138.075  27.5908  0.063272
  7391.853  7391.860  0.500  1.600392  137.678  27.7858  0.064721