Folder: webxdiviewer/xdidata/Mn (part 8)

File: Mn-Pyrolucite.xdi
# XDI/1.0 BlueSky/1.10.0 BMM/2023-1.0-py310-tiled
# Beamline.name: BMM (06BM) -- Beamline for Materials Measurement (NIST)
# Beamline.xray_source: NSLS-II three-pole wiggler
# Beamline.collimation: paraboloid mirror, 5 nm Rh on 30 nm Pt
# Beamline.focusing: not in use
# Beamline.harmonic_rejection: flat mirror, Si stripe, pitch = 7.0 mrad relative to beam
# Beamline.software: Bluesky 1.10.0, Ophyd 1.7.0, DataBroker 2.0.0b13, Python 3.10.8, 2023-1.0-py310-tiled
# Detector.I0: 10 cm N2
# Detector.I1: 25 cm N2
# Detector.I2: 25 cm N2
# Element.symbol: Mn
# Element.edge: K
# Element.reference: Mn
# Element.reference_material: Mn metal powder
# Facility.name: NSLS-II
# Facility.energy: 3.0
# Facility.current: 400.1
# Facility.mode: top-off
# Facility.GUP: 123456
# Facility.SAF: 301027
# Facility.cycle: 2023-2
# Mono.name: Si(111)
# Mono.d_spacing: 3.13519
# Mono.encoder_resolution: 0.0000050 deg/ct
# Mono.angle_offset: 16.0754 deg
# Mono.scan_mode: pseudo channel cut
# Mono.scan_type: step
# Mono.direction: forward in energy
# Sample.name: MnO2
# Sample.prep: powder on tape
# Sample.x: 123.848 mm
# Sample.y: 114.690 mm
# Sample.SDD_position: 205.000 mm
# Scan.experimenters: Bruce Ravel
# Scan.edge_energy: 6539.0
# Scan.start_time: 2023-05-08T11:28:53
# Scan.end_time: 2023-05-08T11:36:52
# Scan.transient_id: 75369
# Scan.uid: e33fcfa9-e239-4062-a66d-db816c8f57ff
# Scan.plot_hint: ln(I0/It)  --  ln($5/$6)
# Column.1: energy eV
# Column.2: requested_energy eV
# Column.3: measurement_time seconds
# Column.4: xmu
# Column.5: I0 nA
# Column.6: It nA
# Column.7: Ir nA
# ///////////
# Welcome to BMM
# -----------
# energy  requested_energy  measurement_time  xmu  I0  It  Ir
  6338.998  6339.000  0.500  2.238266  150.548  16.0549  0.822197
  6368.999  6369.000  0.500  2.197721  151.274  16.7999  0.895193
  6399.012  6399.000  0.500  2.157654  151.891  17.558  0.972954
  6429.019  6429.000  0.500  2.118498  152.453  18.3267  1.054866
  6459.006  6459.000  0.500  2.079690  152.528  19.0613  1.137306
  6490.600  6489.000  0.500  2.041645  153.059  19.8693  1.225275
  6510.986  6511.000  0.500  2.016222  153.709  20.4675  1.279535
  6516.990  6517.000  0.500  2.009644  153.793  20.6139  1.287200
  6522.990  6523.000  0.500  2.002723  153.889  20.7699  1.287290
  6528.998  6529.000  0.500  1.997098  153.968  20.8979  1.265664
  6529.882  6529.900  0.500  1.996409  153.994  20.9157  1.257187
  6530.784  6530.800  0.500  1.995981  154.015  20.9277  1.247831
  6531.691  6531.700  0.500  1.995010  154.018  20.9484  1.235163
  6532.590  6532.600  0.500  1.994688  154.039  20.958  1.218233
  6533.487  6533.500  0.500  1.994642  154.038  20.9588  1.194837
  6534.389  6534.400  0.500  1.994119  154.04  20.97  1.162923
  6535.294  6535.300  0.500  1.994538  154.035  20.9605  1.112294
  6536.194  6536.200  0.500  1.994643  154.043  20.9595  1.028731
  6537.091  6537.100  0.500  1.995628  154.064  20.9416  0.851486
  6537.998  6538.000  0.500  2.000152  154.057  20.8462  0.490543
  6538.900  6538.900  0.500  2.014694  154.041  20.5431  0.225121
  6539.796  6539.800  0.500  2.029502  154.052  20.2426  0.146797
  6540.692  6540.700  0.500  2.033019  154.043  20.1703  0.109797
  6541.598  6541.600  0.500  2.039970  154.032  20.0292  0.094863
  6542.498  6542.500  0.500  2.042519  154.589  20.0504  0.092907
  6543.397  6543.400  0.500  2.041300  154.624  20.0794  0.082483
  6544.298  6544.300  0.500  2.045036  154.621  20.0041  0.070184
  6545.202  6545.200  0.500  2.055500  154.625  19.7965  0.063369
  6546.102  6546.100  0.500  2.076992  154.613  19.374  0.055145
  6546.998  6547.000  0.500  2.121664  154.611  18.5274  0.043996
  6547.896  6547.900  0.500  2.204185  154.626  17.0615  0.032425
  6548.802  6548.800  0.500  2.316545  154.6  15.2456  0.022892
  6549.697  6549.700  0.500  2.419329  154.609  13.7573  0.016260
  6550.601  6550.600  0.500  2.491765  154.606  12.7958  0.012140
  6551.504  6551.500  0.500  2.558345  154.603  11.9713  0.009169
  6552.396  6552.400  0.500  2.624324  154.593  11.2063  0.007204
  6553.300  6553.300  0.500  2.685002  154.592  10.5465  0.005761
  6554.204  6554.200  0.500  2.740328  154.588  9.978533  0.004787
  6555.098  6555.100  0.500  2.803324  154.601  9.370101  0.004039
  6555.997  6556.000  0.500  2.867579  154.606  8.787267  0.003942
  6556.905  6556.900  0.500  2.917085  154.601  8.362530  0.004040
  6557.799  6557.800  0.500  2.945997  154.584  8.123334  0.004186
  6558.699  6558.700  0.500  2.966337  154.593  7.960231  0.004548
  6559.606  6559.600  0.500  2.982439  154.598  7.833349  0.004723
  6560.504  6560.500  0.500  2.979765  154.582  7.853514  0.005043
  6561.397  6561.400  0.500  2.954806  154.511  8.048283  0.004902
  6562.303  6562.300  0.500  2.916872  154.267  8.346274  0.005128
  6563.205  6563.200  0.500  2.881169  154.549  8.665463  0.005242
  6564.000  6564.000  0.500  2.855087  154.588  8.896659  0.005100
  6567.035  6567.010  0.500  2.802800  154.609  9.375508  0.005231
  6570.192  6570.200  0.500  2.791629  154.614  9.481098  0.005433
  6573.563  6573.560  0.500  2.806757  154.643  9.340496  0.005229
  6577.084  6577.080  0.500  2.751016  154.681  9.878393  0.005343
  6580.786  6580.780  0.500  2.679331  154.692  10.6133  0.005436
  6584.648  6584.650  0.500  2.625658  154.714  11.2001  0.005288
  6588.702  6588.700  0.500  2.595129  154.693  11.5457  0.005634
  6592.914  6592.910  0.500  2.596767  154.706  11.5278  0.006363
  6597.295  6597.290  0.500  2.621517  154.719  11.2469  0.006864
  6601.859  6601.850  0.500  2.650857  154.706  10.9208  0.007083
  6606.585  6606.580  0.500  2.670399  154.694  10.7086  0.006783
  6611.489  6611.480  0.500  2.679380  154.724  10.6149  0.006087
  6616.559  6616.550  0.500  2.678494  154.704  10.623  0.005752
  6621.798  6621.790  0.500  2.668064  154.659  10.7313  0.005890
  6627.214  6627.210  0.500  2.655257  154.672  10.8705  0.006216
  6632.805  6632.790  0.500  2.647059  154.664  10.9594  0.006623
  6638.561  6638.550  0.500  2.642252  154.667  11.0124  0.006469
  6644.493  6644.480  0.500  2.625042  154.658  11.2029  0.006524
  6650.591  6650.580  0.500  2.602820  154.644  11.4536  0.007103
  6656.860  6656.850  0.500  2.587129  154.619  11.6329  0.007609
  6663.302  6663.290  0.500  2.578587  154.611  11.7321  0.007891
  6669.907  6669.900  0.500  2.567429  154.576  11.8611  0.007718
  6676.696  6676.690  0.500  2.550156  154.536  12.0645  0.007410
  6683.660  6683.650  0.500  2.538049  154.552  12.2127  0.007579
  6690.782  6690.770  0.500  2.534705  154.517  12.2509  0.007704
  6698.081  6698.070  0.500  2.532990  154.473  12.2684  0.008103
  6705.551  6705.550  0.500  2.529150  154.428  12.3121  0.008720
  6713.200  6713.190  0.500  2.522680  154.412  12.3907  0.008851
  6721.014  6721.000  0.500  2.513555  154.367  12.5006  0.008987
  6729.000  6728.990  0.500  2.501787  154.336  12.6461  0.009068
  6737.163  6737.150  0.500  2.483047  154.251  12.8782  0.009300
  6745.481  6745.470  0.500  2.464469  154.176  13.1133  0.009605
  6753.978  6753.970  0.500  2.449640  154.666  13.3515  0.010181
  6762.666  6762.650  0.500  2.435940  154.631  13.5326  0.010414
  6771.497  6771.490  0.500  2.422464  154.569  13.7107  0.010533
  6780.527  6780.500  0.500  2.410787  154.528  13.868  0.011128
  6789.703  6789.690  0.500  2.399589  154.517  14.0232  0.011760
  6799.067  6799.050  0.500  2.387390  154.004  14.1482  0.012204
  6808.595  6808.570  0.500  2.374490  154.088  14.3397  0.012415
  6818.287  6818.270  0.500  2.362883  153.907  14.4901  0.012566
  6828.157  6828.150  0.500  2.351842  153.582  14.6201  0.012831
  6838.201  6838.190  0.500  2.338850  153.305  14.7845  0.013208
  6848.417  6848.400  0.500  2.324368  153.148  14.9848  0.013720
  6858.804  6858.790  0.500  2.310492  153.117  15.1912  0.014341
  6869.364  6869.350  0.500  2.296934  153.075  15.3942  0.014897
  6880.096  6880.080  0.500  2.281984  152.999  15.6183  0.015657
  6890.995  6890.980  0.500  2.266907  152.888  15.8441  0.016179
  6902.068  6902.050  0.500  2.251792  152.709  16.0666  0.016688
  6913.303  6913.290  0.500  2.237027  152.415  16.2742  0.017148
  6924.722  6924.710  0.500  2.222761  152.101  16.474  0.017646
  6936.305  6936.290  0.500  2.208998  151.848  16.6745  0.018166
  6948.063  6948.050  0.500  2.196041  151.61  16.8655  0.018776
  6959.994  6959.980  0.500  2.182869  151.393  17.0646  0.019475
  6972.096  6972.080  0.500  2.168862  151.18  17.281  0.020343
  6984.355  6984.350  0.500  2.153863  150.911  17.511  0.021234
  6996.794  6996.790  0.500  2.139059  150.605  17.736  0.021765
  7009.413  7009.410  0.500  2.124130  150.266  17.9623  0.022589
  7022.193  7022.190  0.500  2.108503  149.984  18.211  0.023398
  7035.159  7035.150  0.500  2.093507  149.601  18.439  0.024175
  7048.289  7048.280  0.500  2.078810  149.238  18.6665  0.025092
  7061.594  7061.580  0.500  2.063854  148.917  18.907  0.026042
  7075.073  7075.050  0.500  2.048434  147.434  19.0096  0.026730
  7088.718  7088.700  0.500  2.033274  148.103  19.3876  0.027990
  7102.534  7102.510  0.500  2.018697  147.677  19.6157  0.029028
  7116.487  7116.500  0.500  2.003378  146.986  19.8253  0.029983
  7130.694  7130.660  0.500  1.988336  145.977  19.9877  0.030481
  7144.980  7144.990  0.500  1.973385  145.529  20.2265  0.031541
  7159.469  7159.490  0.500  1.958472  145.096  20.4692  0.032623
  7174.150  7174.160  0.500  1.943003  144.494  20.7021  0.034017
  7188.980  7189.000  0.500  1.927514  143.973  20.9494  0.035325
  7203.997  7204.020  0.500  1.911643  143.323  21.1885  0.036511
  7219.181  7219.200  0.500  1.896405  142.654  21.4134  0.037857
  7234.545  7234.560  0.500  1.880687  142.186  21.6813  0.039449
  7250.069  7250.090  0.500  1.865225  141.526  21.9168  0.040790
  7265.770  7265.790  0.500  1.849673  139.985  22.0181  0.041854
  7281.648  7281.660  0.500  1.834257  141.03  22.527  0.043962
  7297.695  7297.710  0.500  1.818899  140.382  22.7705  0.045539
  7313.919  7313.920  0.500  1.803510  139.922  23.048  0.047220
  7330.292  7330.310  0.500  1.787897  139.355  23.3157  0.048980
  7346.844  7346.870  0.500  1.772486  138.728  23.5712  0.050864
  7363.579  7363.600  0.500  1.756847  138.085  23.8318  0.052606
  7380.486  7380.500  0.500  1.741108  137.443  24.0974  0.054832
  7391.851  7391.860  0.500  1.730991  136.998  24.2636  0.055974