Folder: webxdiviewer/xdidata/Mn (part 7)

File: Mn-Mnfoil.xdi
# XDI/1.0 BlueSky/1.10.0 BMM/2023-1.0-py310-tiled
# Beamline.name: BMM (06BM) -- Beamline for Materials Measurement (NIST)
# Beamline.xray_source: NSLS-II three-pole wiggler
# Beamline.collimation: paraboloid mirror, 5 nm Rh on 30 nm Pt
# Beamline.focusing: not in use
# Beamline.harmonic_rejection: flat mirror, Si stripe, pitch = 7.0 mrad relative to beam
# Beamline.software: Bluesky 1.10.0, Ophyd 1.7.0, DataBroker 2.0.0b13, Python 3.10.8, 2023-1.0-py310-tiled
# Detector.I0: 10 cm N2
# Detector.I1: 25 cm N2
# Detector.I2: 25 cm N2
# Element.symbol: Mn
# Element.edge: K
# Element.reference: Mn
# Element.reference_material: Mn metal powder
# Facility.name: NSLS-II
# Facility.energy: 3.0
# Facility.current: 399.9
# Facility.mode: top-off
# Facility.GUP: 123456
# Facility.SAF: 301027
# Facility.cycle: 2023-2
# Mono.name: Si(111)
# Mono.d_spacing: 3.13519
# Mono.encoder_resolution: 0.0000050 deg/ct
# Mono.angle_offset: 16.0754 deg
# Mono.scan_mode: pseudo channel cut
# Mono.scan_type: step
# Mono.direction: forward in energy
# Sample.name: Mn foil
# Sample.prep: metal powder
# Sample.x: 123.848 mm
# Sample.y: 114.690 mm
# Sample.SDD_position: 205.000 mm
# Scan.experimenters: Bruce Ravel
# Scan.edge_energy: 6539.0
# Scan.start_time: 2023-05-08T12:28:57
# Scan.end_time: 2023-05-08T12:36:58
# Scan.transient_id: 75376
# Scan.uid: a5a1b95b-9ba7-412f-9f6e-b5fc9600c99a
# Scan.plot_hint: ln(I0/It)  --  ln($5/$6)
# Column.1: energy eV
# Column.2: requested_energy eV
# Column.3: measurement_time seconds
# Column.4: xmu
# Column.5: I0 nA
# Column.6: It nA
# Column.7: Ir nA
# ///////////
# reference wheel
# -----------
# energy  requested_energy  measurement_time  xmu  I0  It  Ir
  6339.001  6339.000  0.500  0.659827  150.301  77.6965  4.001704
  6369.002  6369.000  0.500  0.640364  150.979  79.5813  4.264913
  6399.009  6399.000  0.500  0.622232  151.536  81.3359  4.531651
  6429.014  6429.000  0.500  0.604553  152.085  83.0871  4.807630
  6459.008  6459.000  0.500  0.586316  152.08  84.613  5.074225
  6489.286  6489.000  0.500  0.569416  152.827  86.4778  5.357125
  6510.986  6511.000  0.500  0.556528  153.15  87.785  5.515052
  6516.987  6517.000  0.500  0.552692  153.241  88.1748  5.532500
  6522.992  6523.000  0.500  0.549490  153.339  88.5138  5.514352
  6528.998  6529.000  0.500  0.546177  153.408  88.8479  5.405608
  6529.884  6529.900  0.500  0.545649  153.401  88.8907  5.370748
  6530.786  6530.800  0.500  0.545017  153.38  88.9346  5.329151
  6531.692  6531.700  0.500  0.544781  153.423  88.9806  5.271993
  6532.590  6532.600  0.500  0.544194  153.413  89.0271  5.202608
  6533.489  6533.500  0.500  0.544155  153.425  89.0373  5.103484
  6534.391  6534.400  0.500  0.543674  153.395  89.063  4.969221
  6535.294  6535.300  0.500  0.542597  153.398  89.1604  4.765718
  6536.193  6536.200  0.500  0.542056  153.417  89.22  4.424518
  6537.091  6537.100  0.500  0.541534  153.404  89.2587  3.702483
  6537.998  6538.000  0.500  0.540792  153.407  89.3271  2.200252
  6538.900  6538.900  0.500  0.540791  153.912  89.6211  1.014719
  6539.794  6539.800  0.500  0.539788  154.002  89.7634  0.663847
  6540.696  6540.700  0.500  0.539460  153.998  89.7904  0.496093
  6541.598  6541.600  0.500  0.538860  154.01  89.8513  0.427217
  6542.500  6542.500  0.500  0.538178  153.997  89.9052  0.418696
  6543.395  6543.400  0.500  0.537788  153.985  89.9333  0.373816
  6544.298  6544.300  0.500  0.537340  153.987  89.9746  0.318404
  6545.200  6545.200  0.500  0.537171  153.984  89.9881  0.288857
  6546.094  6546.100  0.500  0.536280  153.978  90.0647  0.258187
  6547.000  6547.000  0.500  0.536054  153.978  90.0853  0.215162
  6547.901  6547.900  0.500  0.535244  153.976  90.1567  0.171510
  6548.802  6548.800  0.500  0.534838  153.964  90.1866  0.135409
  6549.699  6549.700  0.500  0.534488  153.96  90.2157  0.106074
  6550.603  6550.600  0.500  0.533665  153.948  90.2832  0.083953
  6551.499  6551.500  0.500  0.533050  153.956  90.3434  0.067830
  6552.395  6552.400  0.500  0.533323  153.948  90.3137  0.055579
  6553.303  6553.300  0.500  0.532744  153.927  90.3539  0.045819
  6554.198  6554.200  0.500  0.532213  153.928  90.4027  0.039480
  6555.100  6555.100  0.500  0.531957  153.929  90.426  0.036379
  6556.003  6556.000  0.500  0.531381  153.937  90.4831  0.036087
  6556.902  6556.900  0.500  0.530809  153.923  90.5266  0.038491
  6557.799  6557.800  0.500  0.529726  153.915  90.6197  0.042660
  6558.702  6558.700  0.500  0.529030  153.919  90.6852  0.047090
  6559.602  6559.600  0.500  0.528508  153.943  90.747  0.050624
  6560.500  6560.500  0.500  0.528152  153.927  90.7696  0.052314
  6561.400  6561.400  0.500  0.527862  153.852  90.7518  0.052486
  6562.305  6562.300  0.500  0.527758  153.587  90.6051  0.051635
  6563.202  6563.200  0.500  0.526764  153.881  90.8689  0.050769
  6564.000  6564.000  0.500  0.526201  153.899  90.9307  0.049834
  6567.026  6567.010  0.500  0.524843  153.915  91.0635  0.048250
  6570.192  6570.200  0.500  0.523389  153.941  91.2117  0.048494
  6573.557  6573.560  0.500  0.521149  153.935  91.4125  0.048544
  6577.080  6577.080  0.500  0.518987  154.004  91.6512  0.046740
  6580.784  6580.780  0.500  0.516884  154.036  91.8632  0.043611
  6584.653  6584.650  0.500  0.515023  154.048  92.0417  0.040222
  6588.702  6588.700  0.500  0.513182  154.046  92.21  0.042785
  6592.912  6592.910  0.500  0.510468  154.039  92.4563  0.047930
  6597.297  6597.290  0.500  0.508227  154.086  92.6923  0.053613
  6601.858  6601.850  0.500  0.505708  154.098  92.9333  0.057021
  6606.594  6606.580  0.500  0.503105  154.126  93.1925  0.054888
  6611.485  6611.480  0.500  0.500553  154.195  93.4725  0.050942
  6616.559  6616.550  0.500  0.497845  154.192  93.724  0.048255
  6621.802  6621.790  0.500  0.495147  154.173  93.9657  0.048557
  6627.224  6627.210  0.500  0.492207  154.215  94.268  0.051369
  6632.799  6632.790  0.500  0.489449  154.235  94.5402  0.054106
  6638.557  6638.550  0.500  0.486204  154.238  94.8495  0.052414
  6644.488  6644.480  0.500  0.483287  154.249  95.1332  0.052171
  6650.589  6650.580  0.500  0.479910  154.267  95.4664  0.055949
  6656.856  6656.850  0.500  0.476485  154.261  95.7903  0.059650
  6663.296  6663.290  0.500  0.473181  154.259  96.1063  0.061380
  6669.910  6669.900  0.500  0.469798  154.258  96.4312  0.059450
  6676.700  6676.690  0.500  0.466287  154.218  96.7453  0.057102
  6683.660  6683.650  0.500  0.462659  154.241  97.111  0.057082
  6690.780  6690.770  0.500  0.459477  154.207  97.3995  0.058676
  6698.076  6698.070  0.500  0.455808  154.163  97.7291  0.062348
  6705.561  6705.550  0.500  0.451596  154.131  98.1215  0.066486
  6713.204  6713.190  0.500  0.447770  154.104  98.4807  0.068389
  6721.011  6721.000  0.500  0.443952  154.054  98.825  0.068622
  6728.998  6728.990  0.500  0.440103  154.621  99.5714  0.069147
  6737.163  6737.150  0.500  0.435867  154.541  99.942  0.069104
  6745.483  6745.470  0.500  0.431785  154.435  100.282  0.070414
  6753.980  6753.970  0.500  0.427354  154.384  100.694  0.073701
  6762.655  6762.650  0.500  0.423396  154.298  101.037  0.074856
  6771.499  6771.490  0.500  0.419419  154.223  101.391  0.075977
  6780.518  6780.500  0.500  0.414552  154.154  101.84  0.079526
  6789.700  6789.690  0.500  0.410355  154.105  102.236  0.083666
  6799.062  6799.050  0.500  0.405798  153.499  102.298  0.085942
  6808.586  6808.570  0.500  0.401580  153.569  102.778  0.086936
  6818.301  6818.270  0.500  0.396570  153.381  103.167  0.087118
  6828.175  6828.150  0.500  0.392157  153.085  103.424  0.088452
  6838.207  6838.190  0.500  0.387085  152.833  103.778  0.090915
  6848.423  6848.400  0.500  0.382381  152.505  104.044  0.093230
  6858.787  6858.790  0.500  0.377839  152.433  104.469  0.096550
  6869.366  6869.350  0.500  0.373267  152.383  104.913  0.099986
  6880.098  6880.080  0.500  0.368423  152.331  105.387  0.103330
  6890.985  6890.980  0.500  0.363376  152.176  105.812  0.105896
  6902.060  6902.050  0.500  0.358376  152  106.219  0.108478
  6913.278  6913.290  0.500  0.353380  151.646  106.503  0.110408
  6924.710  6924.710  0.500  0.347716  151.284  106.852  0.113163
  6936.303  6936.290  0.500  0.342634  151.049  107.23  0.115895
  6948.059  6948.050  0.500  0.337497  150.832  107.627  0.118632
  6959.982  6959.980  0.500  0.332401  150.585  108  0.122202
  6972.084  6972.080  0.500  0.326982  150.359  108.424  0.126392
  6984.351  6984.350  0.500  0.321700  150.024  108.755  0.130336
  6996.792  6996.790  0.500  0.316458  149.751  109.127  0.133636
  7009.419  7009.410  0.500  0.311058  149.376  109.443  0.136733
  7022.200  7022.190  0.500  0.305742  149.114  109.834  0.140351
  7035.161  7035.150  0.500  0.300260  148.76  110.175  0.143928
  7048.297  7048.280  0.500  0.294813  148.416  110.521  0.148016
  7061.605  7061.580  0.500  0.289539  148.098  110.867  0.151950
  7075.039  7075.050  0.500  0.283760  146.726  110.477  0.155141
  7088.688  7088.700  0.500  0.278164  147.298  111.53  0.160960
  7102.502  7102.510  0.500  0.272632  146.947  111.881  0.165369
  7116.479  7116.500  0.500  0.267248  146.238  111.943  0.168361
  7130.703  7130.660  0.500  0.261736  145.242  111.795  0.170798
  7144.969  7144.990  0.500  0.256024  144.824  112.111  0.175238
  7159.521  7159.490  0.500  0.250597  144.458  112.437  0.180030
  7174.146  7174.160  0.500  0.244437  143.846  112.652  0.184944
  7188.978  7189.000  0.500  0.238845  143.382  112.918  0.190239
  7203.999  7204.020  0.500  0.233127  142.745  113.062  0.195469
  7219.177  7219.200  0.500  0.227509  142.155  113.229  0.200431
  7234.543  7234.560  0.500  0.221729  141.717  113.534  0.206574
  7250.078  7250.090  0.500  0.215830  141.085  113.696  0.212050
  7265.775  7265.790  0.500  0.210460  139.338  112.894  0.215484
  7281.657  7281.660  0.500  0.204423  140.646  114.643  0.224121
  7297.691  7297.710  0.500  0.198835  140.058  114.803  0.230410
  7313.903  7313.920  0.500  0.192712  139.627  115.153  0.237031
  7330.290  7330.310  0.500  0.187075  139.089  115.358  0.243446
  7346.848  7346.870  0.500  0.181266  138.542  115.574  0.250370
  7363.583  7363.600  0.500  0.175230  137.974  115.797  0.257094
  7380.486  7380.500  0.500  0.169245  137.424  116.028  0.264424
  7391.839  7391.860  0.500  0.165627  137.052  116.133  0.269219

File: Mn-Olmite.xdi
# XDI/1.0 BlueSky/1.10.0 BMM/2023-1.0-py310-tiled
# Beamline.name: BMM (06BM) -- Beamline for Materials Measurement (NIST)
# Beamline.xray_source: NSLS-II three-pole wiggler
# Beamline.collimation: paraboloid mirror, 5 nm Rh on 30 nm Pt
# Beamline.focusing: not in use
# Beamline.harmonic_rejection: flat mirror, Si stripe, pitch = 7.0 mrad relative to beam
# Beamline.software: Bluesky 1.10.0, Ophyd 1.7.0, DataBroker 2.0.0b13, Python 3.10.8, 2023-1.0-py310-tiled
# Detector.I0: 10 cm N2
# Detector.I1: 25 cm N2
# Detector.I2: 25 cm N2
# Element.symbol: Mn
# Element.edge: K
# Element.reference: Mn
# Element.reference_material: Mn metal powder
# Facility.name: NSLS-II
# Facility.energy: 3.0
# Facility.current: 400.5
# Facility.mode: top-off
# Facility.GUP: 123456
# Facility.SAF: 301027
# Facility.cycle: 2023-2
# Mono.name: Si(111)
# Mono.d_spacing: 3.13519
# Mono.encoder_resolution: 0.0000050 deg/ct
# Mono.angle_offset: 16.0754 deg
# Mono.scan_mode: pseudo channel cut
# Mono.scan_type: step
# Mono.direction: forward in energy
# Sample.name: CaMnSiO3(OH)(OH)
# Sample.prep: PEG pellet
# Sample.x: 123.848 mm
# Sample.y: 114.690 mm
# Sample.SDD_position: 205.000 mm
# Scan.experimenters: Bruce Ravel
# Scan.edge_energy: 6539.0
# Scan.start_time: 2023-05-08T11:54:45
# Scan.end_time: 2023-05-08T12:02:39
# Scan.transient_id: 75372
# Scan.uid: 18507fd3-c928-485e-876b-9c4d8e591d94
# Scan.plot_hint: ln(I0/It)  --  ln($5/$6)
# Column.1: energy eV
# Column.2: requested_energy eV
# Column.3: measurement_time seconds
# Column.4: xmu
# Column.5: I0 nA
# Column.6: It nA
# Column.7: Ir nA
# ///////////
# Olmite, N'Chwanning II Mine, Kuruma, Kalahari Manganese Field, Northoern Cape, SA
# -----------
# energy  requested_energy  measurement_time  xmu  I0  It  Ir
  6338.998  6339.000  0.500  2.607968  150.794  11.1112  0.571176
  6369.013  6369.000  0.500  2.564067  151.497  11.6639  0.624007
  6399.012  6399.000  0.500  2.521289  152.103  12.2224  0.679499
  6429.017  6429.000  0.500  2.480267  152.626  12.778  0.737907
  6459.015  6459.000  0.500  2.439156  152.677  13.3187  0.797080
  6488.987  6489.000  0.500  2.399732  153.538  13.9324  0.860985
  6510.993  6511.000  0.500  2.371759  153.812  14.3532  0.899874
  6516.992  6517.000  0.500  2.364587  153.895  14.4643  0.905780
  6522.994  6523.000  0.500  2.357853  153.971  14.5692  0.905242
  6528.998  6529.000  0.500  2.352361  154.029  14.655  0.889656
  6529.884  6529.900  0.500  2.351732  154.026  14.6639  0.884003
  6530.784  6530.800  0.500  2.351296  154.025  14.6702  0.876957
  6531.687  6531.700  0.500  2.350601  154.031  14.6809  0.867913
  6532.590  6532.600  0.500  2.350161  154.028  14.6872  0.855736
  6533.487  6533.500  0.500  2.349621  154.01  14.6934  0.840087
  6534.392  6534.400  0.500  2.349688  154.003  14.6917  0.817009
  6535.294  6535.300  0.500  2.350141  153.992  14.684  0.782064
  6536.196  6536.200  0.500  2.350691  153.994  14.6761  0.723869
  6537.093  6537.100  0.500  2.352493  153.996  14.6499  0.601720
  6537.992  6538.000  0.500  2.356564  153.986  14.5894  0.352715
  6538.897  6538.900  0.500  2.373676  153.978  14.3412  0.160339
  6539.794  6539.800  0.500  2.389162  153.981  14.121  0.103563
  6540.696  6540.700  0.500  2.374437  153.966  14.3291  0.078587
  6541.598  6541.600  0.500  2.371560  153.96  14.3699  0.068187
  6542.500  6542.500  0.500  2.382074  153.973  14.2208  0.066119
  6543.397  6543.400  0.500  2.413825  153.98  13.777  0.057208
  6544.296  6544.300  0.500  2.498418  153.982  12.6596  0.044720
  6545.200  6545.200  0.500  2.658989  153.979  10.7814  0.034716
  6546.098  6546.100  0.500  2.812828  153.964  9.243207  0.026793
  6546.998  6547.000  0.500  2.922370  153.981  8.285102  0.020067
  6547.900  6547.900  0.500  3.006461  153.955  7.615613  0.014813
  6548.800  6548.800  0.500  3.096630  153.942  6.958394  0.010853
  6549.697  6549.700  0.500  3.221578  153.945  6.141176  0.007642
  6550.601  6550.600  0.500  3.352554  153.923  5.386507  0.005392
  6551.501  6551.500  0.500  3.442662  153.919  4.922241  0.004047
  6552.398  6552.400  0.500  3.445471  153.902  4.907888  0.003417
  6553.303  6553.300  0.500  3.339400  153.89  5.456650  0.003031
  6554.204  6554.200  0.500  3.236268  153.882  6.049139  0.002988
  6555.097  6555.100  0.500  3.185684  153.872  6.362621  0.002883
  6555.999  6556.000  0.500  3.134357  154.458  6.723203  0.003006
  6556.905  6556.900  0.500  3.075707  154.445  7.128708  0.003291
  6557.803  6557.800  0.500  3.047796  154.421  7.329342  0.003769
  6558.699  6558.700  0.500  3.049038  154.421  7.320258  0.004171
  6559.606  6559.600  0.500  3.052682  154.43  7.294053  0.004415
  6560.500  6560.500  0.500  3.035887  154.417  7.416947  0.004626
  6561.399  6561.400  0.500  3.017420  154.342  7.551511  0.004746
  6562.301  6562.300  0.500  3.006494  154.074  7.621251  0.004589
  6563.204  6563.200  0.500  3.005038  154.371  7.647072  0.004606
  6564.000  6564.000  0.500  3.009845  154.392  7.611423  0.004643
  6567.031  6567.010  0.500  2.986286  154.431  7.794819  0.004462
  6570.194  6570.200  0.500  2.933027  154.457  8.222642  0.004750
  6573.555  6573.560  0.500  2.892752  154.487  8.562188  0.004899
  6577.080  6577.080  0.500  2.887203  154.545  8.613104  0.004668
  6580.782  6580.780  0.500  2.905759  154.571  8.456163  0.004392
  6584.651  6584.650  0.500  2.915975  154.6  8.371780  0.003935
  6588.702  6588.700  0.500  2.935785  154.616  8.208396  0.004197
  6592.918  6592.910  0.500  2.966418  154.642  7.962102  0.004445
  6597.297  6597.290  0.500  2.987886  154.697  7.795784  0.004901
  6601.861  6601.850  0.500  2.971433  154.72  7.926303  0.005213
  6606.587  6606.580  0.500  2.958731  154.756  8.029477  0.005108
  6611.487  6611.480  0.500  2.947449  154.825  8.124174  0.004771
  6616.561  6616.550  0.500  2.933093  154.837  8.242313  0.004642
  6621.798  6621.790  0.500  2.901757  154.83  8.504290  0.004725
  6627.218  6627.210  0.500  2.873931  154.882  8.747185  0.005019
  6632.799  6632.790  0.500  2.866321  154.914  8.815859  0.005448
  6638.559  6638.550  0.500  2.861780  154.942  8.857561  0.005206
  6644.488  6644.480  0.500  2.857343  154.948  8.897294  0.005141
  6650.589  6650.580  0.500  2.857615  154.981  8.896788  0.005627
  6656.858  6656.850  0.500  2.863474  154.958  8.843470  0.005761
  6663.292  6663.290  0.500  2.863575  154.973  8.843438  0.005903
  6669.907  6669.900  0.500  2.853134  154.965  8.935793  0.005894
  6676.702  6676.690  0.500  2.836898  154.945  9.080866  0.005762
  6683.659  6683.650  0.500  2.821355  154.967  9.224429  0.005759
  6690.782  6690.770  0.500  2.807669  154.959  9.351048  0.005902
  6698.077  6698.070  0.500  2.794426  154.909  9.472688  0.006387
  6705.559  6705.550  0.500  2.781057  154.871  9.597844  0.006784
  6713.198  6713.190  0.500  2.768467  154.847  9.717890  0.007088
  6721.007  6721.000  0.500  2.758368  154.791  9.812986  0.007122
  6728.995  6728.990  0.500  2.746145  154.775  9.932633  0.007238
  6737.159  6737.150  0.500  2.733898  154.71  10.0508  0.007365
  6745.481  6745.470  0.500  2.722786  154.586  10.155  0.007439
  6753.978  6753.970  0.500  2.714041  154.547  10.2416  0.007827
  6762.662  6762.650  0.500  2.704147  154.468  10.3381  0.007984
  6771.501  6771.490  0.500  2.691095  154.386  10.4684  0.008068
  6780.527  6780.500  0.500  2.676341  154.331  10.6202  0.008623
  6789.705  6789.690  0.500  2.661751  154.308  10.7747  0.009111
  6799.065  6799.050  0.500  2.646530  153.761  10.9012  0.009462
  6808.586  6808.570  0.500  2.632937  153.825  11.0549  0.009691
  6818.281  6818.270  0.500  2.618298  153.59  11.2008  0.009721
  6828.161  6828.150  0.500  2.604828  153.305  11.3317  0.009934
  6838.199  6838.190  0.500  2.592376  153.033  11.4533  0.010355
  6848.411  6848.400  0.500  2.578908  152.777  11.5892  0.010697
  6858.800  6858.790  0.500  2.566221  152.74  11.7343  0.011290
  6869.362  6869.350  0.500  2.552345  152.707  11.8957  0.011620
  6880.096  6880.080  0.500  2.538227  152.615  12.0576  0.012203
  6890.991  6890.980  0.500  2.523230  153.033  12.2733  0.012458
  6902.060  6902.050  0.500  2.508126  152.886  12.4481  0.012928
  6913.301  6913.290  0.500  2.493181  152.56  12.6086  0.013286
  6924.720  6924.710  0.500  2.478646  152.214  12.7642  0.013847
  6936.301  6936.290  0.500  2.463792  151.934  12.9313  0.014251
  6948.057  6948.050  0.500  2.448949  151.721  13.1063  0.014721
  6959.994  6959.980  0.500  2.434246  151.491  13.2803  0.015304
  6972.090  6972.080  0.500  2.419700  151.236  13.4522  0.015880
  6984.357  6984.350  0.500  2.404968  150.957  13.6267  0.016470
  6996.790  6996.790  0.500  2.389900  150.639  13.8044  0.017042
  7009.408  7009.410  0.500  2.374651  150.291  13.9842  0.017684
  7022.195  7022.190  0.500  2.359221  150  14.1741  0.018285
  7035.157  7035.150  0.500  2.343772  149.614  14.3577  0.018992
  7048.289  7048.280  0.500  2.328091  149.299  14.5539  0.019634
  7061.590  7061.580  0.500  2.312905  148.968  14.7438  0.020284
  7075.066  7075.050  0.500  2.296930  147.503  14.834  0.020978
  7088.709  7088.700  0.500  2.280868  148.122  15.1374  0.021826
  7102.536  7102.510  0.500  2.265261  147.7  15.3317  0.022701
  7116.509  7116.500  0.500  2.249917  146.964  15.4912  0.023320
  7130.688  7130.660  0.500  2.235300  145.947  15.6105  0.023858
  7145.010  7144.990  0.500  2.219308  145.554  15.8194  0.024682
  7159.495  7159.490  0.500  2.202949  145.162  16.037  0.025805
  7174.146  7174.160  0.500  2.186768  144.528  16.2275  0.026667
  7188.984  7189.000  0.500  2.170498  144.006  16.4341  0.027681
  7204.030  7204.020  0.500  2.154672  143.357  16.621  0.028731
  7219.188  7219.200  0.500  2.138109  142.714  16.8228  0.029830
  7234.585  7234.560  0.500  2.121914  142.197  17.0355  0.031047
  7250.080  7250.090  0.500  2.105705  141.57  17.2376  0.032061
  7265.770  7265.790  0.500  2.089281  139.949  17.3224  0.032836
  7281.641  7281.660  0.500  2.073250  141.119  17.7495  0.034552
  7297.713  7297.710  0.500  2.056857  140.491  17.9625  0.036100
  7313.903  7313.920  0.500  2.040712  140.058  18.1986  0.037405
  7330.292  7330.310  0.500  2.024469  139.481  18.4204  0.038782
  7346.848  7346.870  0.500  2.007824  138.901  18.6517  0.040313
  7363.586  7363.600  0.500  1.991726  138.301  18.8725  0.041784
  7380.479  7380.500  0.500  1.974946  137.686  19.1065  0.043362
  7391.846  7391.860  0.500  1.963666  137.282  19.2665  0.044601