Folder: webxdiviewer/xdidata/Mn (part 6)

File: Mn-K-Tephroite.xdi
# XDI/1.0 BlueSky/1.5.3
# Beamline.name: 6BM
# Beamline.xray_source: NSLS-II three-pole wiggler
# Beamline.collimation: paraboloid mirror, 5 nm Rh on 30 nm Pt
# Beamline.focusing: not in use
# Beamline.harmonic_rejection: flat mirror, Si stripe, pitch = 7.0 mrad relative to beam
# Detector.i0: 10 cm N2
# Detector.i1: 25 cm N2
# Detector.i2: 25 cm N2
# Element.symbol: Mn
# Element.edge: K
# Facility.name: NSLS-II
# Facility.energy: 3.0
# Facility.current: 400.7
# Facility.mode: top-off
# Facility.gup: 305081
# Facility.saf: 305123
# Mono.name: Si(111)
# Mono.d_spacing: 3.13532
# Mono.encoder_resolution: 0.0000050 deg/ct
# Mono.angle_offset: 16.0581 deg
# Mono.scan_mode: fixed exit
# Mono.scan_type: step
# Mono.direction: forward in energy
# Sample.name: Mn2SiO4
# Sample.prep: Powder in polyethylene glycol pellet
# Sample.x_position: -120.140 mm
# Sample.y_position: 112.312 mm
# Scan.experimenters: Neil Hyatt, Martin Stennett, Lucy Mottram
# Scan.edge_energy: 6539.0
# Scan.start_time: 2019-11-11T17:55:26
# Scan.end_time: 2019-11-12T04:35:59
# Scan.transient_id: 17907
# Scan.uid: f9fee9a5-b81b-4432-9f03-38e695c9cebd
# Scan.plot_hint: ln(I0/It)  --  ln($5/$6)
# Scan.sequence: merge of 3 scans
# Column.1: energy eV
# Column.2: requested_energy eV
# Column.3: measurement_time seconds
# Column.4: mutrans
# Column.5: i0
# Column.6: itrans
# Column.7: irefer
# /////
#  Franklin, Sussex Co., NJ
# -----
# energy   requested_energy   measurement_time   mutrans   i0   itrans   irefer
6339 6339 0.500000 1.997742 89.6172 12.1559 2.789926
6379.02 6379 0.500000 1.949588 90.481 12.8785 3.038669
6419.02 6419 0.500000 1.902494 91.0734 13.5879 3.293497
6459.01 6459 0.500000 1.856901 91.2577 14.2504 3.545314
6499 6499 0.500000 1.812517 92.134 15.0401 3.836892
6514.99 6515 0.500000 1.795938 92.3426 15.3262 3.942505
6523.2 6523 0.500000 1.788374 92.4908 15.4681 3.992989
6529.09 6529.1 0.500000 1.783570 92.5365 15.5492 4.015865
6529.56 6529.5 0.500000 1.783211 92.5287 15.5546 4.016695
6529.88 6529.9 0.500000 1.782954 92.5088 15.5544 4.015814
6530.28 6530.3 0.500000 1.782773 92.5198 15.5591 4.016841
6530.69 6530.7 0.500000 1.782514 92.5061 15.5608 4.016233
6531.09 6531.1 0.500000 1.782273 92.5052 15.5644 4.015962
6531.5 6531.5 0.500000 1.782068 92.5067 15.5679 4.015489
6531.9 6531.9 0.500000 1.781995 92.4778 15.5642 4.012834
6532.31 6532.3 0.500000 1.781746 92.4826 15.5688 4.012023
6532.7 6532.7 0.500000 1.781627 92.4789 15.57 4.010170
6533.1 6533.1 0.500000 1.781527 92.4587 15.5682 4.006601
6533.5 6533.5 0.500000 1.781400 92.485 15.5746 4.004926
6533.9 6533.9 0.500000 1.781255 92.5783 15.5924 4.004818
6534.3 6534.3 0.500000 1.781405 92.5867 15.5915 3.999881
6534.7 6534.7 0.500000 1.781362 92.5616 15.588 3.991510
6535.1 6535.1 0.500000 1.781412 92.5458 15.5845 3.981367
6535.5 6535.5 0.500000 1.781653 92.6451 15.5975 3.972114
6535.9 6535.9 0.500000 1.781736 92.6563 15.5981 3.953286
6536.3 6536.3 0.500000 1.782086 92.645 15.5907 3.922025
6536.7 6536.7 0.500000 1.782647 92.6184 15.5776 3.870378
6537.1 6537.1 0.500000 1.783477 92.6409 15.5684 3.783781
6537.5 6537.5 0.500000 1.784979 92.743 15.5621 3.656265
6537.9 6537.9 0.500000 1.787958 92.742 15.5155 3.509156
6538.3 6538.3 0.500000 1.792683 92.7339 15.4418 3.387624
6538.7 6538.7 0.500000 1.798067 92.7197 15.3561 3.291644
6539.1 6539.1 0.500000 1.801295 92.6896 15.3014 3.222330
6539.5 6539.5 0.500000 1.801296 92.7129 15.3054 3.176001
6539.9 6539.9 0.500000 1.798477 92.7293 15.3512 3.145849
6540.3 6540.3 0.500000 1.795123 92.6968 15.3974 3.120590
6540.7 6540.7 0.500000 1.793764 92.7057 15.4199 3.100201
6541.1 6541.1 0.500000 1.794553 92.6979 15.4065 3.084278
6541.5 6541.5 0.500000 1.796944 92.6845 15.3676 3.071773
6541.9 6541.9 0.500000 1.801083 92.6978 15.3059 3.054001
6542.3 6542.3 0.500000 1.807644 92.6857 15.2038 3.021905
6542.7 6542.7 0.500000 1.817868 92.6645 15.0467 2.970485
6543.1 6543.1 0.500000 1.833067 92.6555 14.8171 2.900370
6543.5 6543.5 0.500000 1.854437 92.683 14.5061 2.816332
6543.9 6543.9 0.500000 1.882789 92.6773 14.1006 2.716388
6544.3 6544.3 0.500000 1.918445 92.6668 13.6083 2.601110
6544.7 6544.7 0.500000 1.958708 92.6557 13.0663 2.477034
6545.1 6545.1 0.500000 1.998940 92.666 12.5527 2.356569
6545.5 6545.5 0.500000 2.035562 92.633 12.0978 2.248447
6545.9 6545.9 0.500000 2.068188 92.6358 11.7129 2.152745
6546.3 6546.3 0.500000 2.098508 92.6453 11.3622 2.062952
6546.7 6546.7 0.500000 2.129029 92.6196 11.0162 1.973976
6547.1 6547.1 0.500000 2.159700 92.7593 10.7016 1.891716
6547.5 6547.5 0.500000 2.190612 92.7203 10.3721 1.809437
6547.9 6547.9 0.500000 2.221712 92.7072 10.0512 1.728463
6548.3 6548.3 0.500000 2.254254 92.7064 9.730099 1.649076
6548.7 6548.7 0.500000 2.289199 92.7511 9.400799 1.571001
6549.1 6549.1 0.500000 2.324316 92.7907 9.078996 1.495823
6549.5 6549.5 0.500000 2.357346 92.7979 8.785178 1.427773
6549.9 6549.9 0.500000 2.383770 92.7795 8.554423 1.371416
6550.3 6550.3 0.500000 2.400549 92.8337 8.417338 1.332354
6550.7 6550.7 0.500000 2.408698 92.8479 8.349890 1.306166
6551.1 6551.1 0.500000 2.411297 92.874 8.330605 1.289255
6551.5 6551.5 0.500000 2.411974 92.8582 8.323572 1.274302
6551.9 6551.9 0.500000 2.412678 92.8499 8.316961 1.260050
6552.3 6552.3 0.500000 2.411800 92.8432 8.323722 1.248096
6552.7 6552.7 0.500000 2.405156 92.8067 8.376176 1.244512
6553.1 6553.1 0.500000 2.390533 92.8359 8.501446 1.253570
6553.5 6553.5 0.500000 2.369534 92.8121 8.680439 1.270670
6553.9 6553.9 0.500000 2.346959 92.8369 8.880667 1.293557
6554.3 6554.3 0.500000 2.327436 92.8187 9.053301 1.315147
6554.69 6554.7 0.500000 2.312015 92.8195 9.194540 1.333274
6555.1 6555.1 0.500000 2.299018 92.8273 9.316176 1.352500
6555.5 6555.5 0.500000 2.287927 92.823 9.419375 1.371140
6555.9 6555.9 0.500000 2.277865 92.8187 9.513720 1.390884
6556.3 6556.3 0.500000 2.268197 92.835 9.608381 1.412358
6556.71 6556.7 0.500000 2.258018 92.8482 9.708496 1.436665
6557.1 6557.1 0.500000 2.245870 92.8424 9.825737 1.463695
6557.5 6557.5 0.500000 2.231731 92.826 9.963636 1.493454
6557.9 6557.9 0.500000 2.216103 92.8379 10.1229 1.525468
6558.3 6558.3 0.500000 2.201068 92.8327 10.2754 1.555839
6558.7 6558.7 0.500000 2.187625 92.8337 10.4143 1.583512
6559.1 6559.1 0.500000 2.177274 92.8224 10.5209 1.603657
6559.5 6559.5 0.500000 2.170593 92.8342 10.5934 1.618424
6559.9 6559.9 0.500000 2.167198 92.8414 10.6301 1.626563
6560.3 6560.3 0.500000 2.165840 92.787 10.6382 1.628987
6560.7 6560.7 0.500000 2.165952 92.7134 10.6286 1.628166
6561.1 6561.1 0.500000 2.166239 92.731 10.6276 1.626785
6561.5 6561.5 0.500000 2.166064 92.8691 10.6453 1.628146
6561.9 6561.9 0.500000 2.165618 93.0196 10.6673 1.630292
6562.3 6562.3 0.500000 2.165288 93.0301 10.6721 1.629463
6562.7 6562.7 0.500000 2.165522 93.041 10.6708 1.627312
6563.1 6563.1 0.500000 2.166383 93.0241 10.6597 1.624072
6563.5 6563.5 0.500000 2.167511 93.1304 10.6599 1.622648
6563.9 6563.9 0.500000 2.168553 93.1338 10.6492 1.619516
6564.3 6564.3 0.500000 2.169254 93.1316 10.6415 1.617630
6564.7 6564.7 0.500000 2.169056 93.1231 10.6425 1.616531
6565.1 6565.1 0.500000 2.167859 93.117 10.6546 1.618210
6565.5 6565.5 0.500000 2.165518 93.1271 10.6809 1.621852
6565.9 6565.9 0.500000 2.162346 93.1146 10.7136 1.626743
6566.3 6566.3 0.500000 2.158621 93.1109 10.7529 1.633043
6566.7 6566.7 0.500000 2.154845 93.1176 10.7942 1.639769
6567.1 6567.1 0.500000 2.151304 93.0779 10.8279 1.645453
6567.5 6567.5 0.500000 2.147532 93.0931 10.8706 1.652399
6567.9 6567.9 0.500000 2.143864 93.0816 10.9091 1.658851
6568.3 6568.3 0.500000 2.140032 93.0951 10.9528 1.666321
6568.71 6568.7 0.500000 2.136361 93.0385 10.9867 1.672349
6570.09 6570.08 0.710000 2.122862 132.161 15.8176 2.412546
6574.59 6574.58 0.760000 2.095326 141.519 17.411 2.652971
6579.4 6579.39 0.810000 2.112510 150.9 18.249 2.748872
6584.52 6584.51 0.860000 2.133189 160.253 18.9835 2.835557
6589.94 6589.93 0.910000 2.160924 169.633 19.5447 2.973117
6595.66 6595.65 0.960000 2.170082 179.132 20.4512 3.168810
6601.69 6601.68 1.010000 2.151117 188.364 21.9167 3.433307
6608.02 6608.01 1.060000 2.135872 198.197 23.4152 3.656245
6614.66 6614.65 1.110000 2.105912 207.668 25.2801 3.923061
6621.61 6621.6 1.160000 2.093792 217.393 26.7868 4.169196
6628.84 6628.84 1.210000 2.089096 226.671 28.0613 4.409920
6636.41 6636.4 1.260000 2.084864 236.575 29.4119 4.650392
6644.27 6644.26 1.310000 2.080061 246.033 30.735 4.883630
6652.43 6652.42 1.360000 2.068718 255.576 32.2913 5.189836
6660.9 6660.89 1.410000 2.060690 265.139 33.7697 5.468393
6669.67 6669.66 1.460000 2.058830 274.602 35.04 5.680037
6678.75 6678.74 1.510000 2.048444 284.197 36.6435 5.951663
6688.12 6688.12 1.560000 2.031852 293.708 38.5031 6.302378
6697.8 6697.8 1.610000 2.019028 303.099 40.2471 6.668284
6707.79 6707.79 1.660000 2.005399 312.586 42.0759 7.048797
6718.09 6718.09 1.710000 1.990958 322.012 43.9755 7.415033
6728.69 6728.69 1.760000 1.980691 331.336 45.7158 7.747455
6739.6 6739.6 1.810000 1.970755 340.683 47.4746 8.091569
6750.81 6750.81 1.860000 1.960381 350.293 49.3226 8.485014
6762.31 6762.32 1.910000 1.947878 359.163 51.2075 8.897026
6774.14 6774.14 1.960000 1.931186 368.84 53.4725 9.380212
6786.27 6786.27 2.010000 1.917121 377.8 55.5474 9.846219
6798.71 6798.7 2.060000 1.905264 387.257 57.6172 10.3068
6811.43 6811.43 2.110000 1.889152 371.761 56.21 10.1259
6824.47 6824.47 2.160000 1.875542 402.086 61.6283 11.1866
6837.82 6837.82 2.210000 1.862127 411.732 63.9588 11.7229
6851.47 6851.47 2.260000 1.847842 420.051 66.1901 12.2574
6865.43 6865.42 2.310000 1.833817 427.925 68.3832 12.797
6879.68 6879.68 2.360000 1.819177 437.175 70.8914 13.4002
6894.24 6894.24 2.410000 1.803492 446.919 73.6171 14.0455
6909.11 6909.11 2.460000 1.788328 455.238 76.1333 14.6594
6924.28 6924.28 2.510000 1.773207 463.753 78.7384 15.3048
6939.77 6939.76 2.560000 1.757390 472.613 81.5227 16.0056
6955.55 6955.54 2.610000 1.742050 481.044 84.2594 16.7114
6971.63 6971.63 2.660000 1.726504 489.564 87.0954 17.4588
6988.02 6988.02 2.710000 1.710638 497.741 89.9661 18.224
7004.73 7004.72 2.760000 1.694910 505.83 92.8775 19.0041
7021.73 7021.72 2.810000 1.678695 513.399 95.8087 19.8027
7039.03 7039.03 2.860000 1.662482 520.809 98.7799 20.6273
7056.65 7056.64 2.910000 1.646103 528.149 101.826 21.4886
7074.56 7074.56 2.960000 1.629680 531.284 104.127 22.2065
7092.78 7092.78 3.010000 1.612915 543.603 108.341 23.3567
7111.31 7111.3 3.060000 1.596964 550.096 111.398 24.257
7130.13 7130.13 3.110000 1.611451 530.713 105.927 23.2163
7149.28 7149.27 3.160000 1.584683 545.579 111.849 24.7908
7168.71 7168.71 3.210000 1.570693 554.629 115.306 25.8366
7188.46 7188.45 3.260000 1.553791 559.78 118.361 26.8081
7208.51 7208.5 3.310000 1.535545 568.073 122.326 28.0121
7228.87 7228.86 3.360000 1.518361 575.328 126.035 29.1834
7249.52 7249.52 3.410000 1.501093 580.619 129.409 30.2943
7270.49 7270.48 3.460000 1.484072 589.532 133.652 31.6306
7281.08 7281.08 3.490000 1.475213 583.926 133.557 31.7801

File: Mn-Manganosite.xdi
# XDI/1.0 BlueSky/1.10.0 BMM/2023-1.0-py310-tiled
# Beamline.name: BMM (06BM) -- Beamline for Materials Measurement (NIST)
# Beamline.xray_source: NSLS-II three-pole wiggler
# Beamline.collimation: paraboloid mirror, 5 nm Rh on 30 nm Pt
# Beamline.focusing: not in use
# Beamline.harmonic_rejection: flat mirror, Si stripe, pitch = 7.0 mrad relative to beam
# Beamline.software: Bluesky 1.10.0, Ophyd 1.7.0, DataBroker 2.0.0b13, Python 3.10.8, 2023-1.0-py310-tiled
# Detector.I0: 10 cm N2
# Detector.I1: 25 cm N2
# Detector.I2: 25 cm N2
# Element.symbol: Mn
# Element.edge: K
# Element.reference: Mn
# Element.reference_material: Mn metal powder
# Facility.name: NSLS-II
# Facility.energy: 3.0
# Facility.current: 400.6
# Facility.mode: top-off
# Facility.GUP: 123456
# Facility.SAF: 301027
# Facility.cycle: 2023-2
# Mono.name: Si(111)
# Mono.d_spacing: 3.13519
# Mono.encoder_resolution: 0.0000050 deg/ct
# Mono.angle_offset: 16.0754 deg
# Mono.scan_mode: pseudo channel cut
# Mono.scan_type: step
# Mono.direction: forward in energy
# Sample.name: MnO
# Sample.prep: powder on tape
# Sample.x: 123.848 mm
# Sample.y: 114.690 mm
# Sample.SDD_position: 205.000 mm
# Scan.experimenters: Bruce Ravel
# Scan.edge_energy: 6539.0
# Scan.start_time: 2023-05-08T11:11:23
# Scan.end_time: 2023-05-08T11:19:42
# Scan.transient_id: 75367
# Scan.uid: eeff05dd-5cd6-453d-93c2-04dfcb22806d
# Scan.plot_hint: ln(I0/It)  --  ln($5/$6)
# Column.1: energy eV
# Column.2: requested_energy eV
# Column.3: measurement_time seconds
# Column.4: xmu
# Column.5: I0 nA
# Column.6: It nA
# Column.7: Ir nA
# ///////////
# Welcome to BMM
# -----------
# energy  requested_energy  measurement_time  xmu  I0  It  Ir
  6339.006  6339.000  0.500  2.306912  149.757  14.9111  0.767878
  6368.985  6369.000  0.500  2.264728  150.402  15.6205  0.837026
  6399.012  6399.000  0.500  2.224166  150.906  16.3216  0.909047
  6429.009  6429.000  0.500  2.183874  151.408  17.0492  0.985836
  6459.005  6459.000  0.500  2.145083  151.427  17.7258  1.062647
  6488.981  6489.000  0.500  2.107318  152.429  18.5298  1.147001
  6510.986  6511.000  0.500  2.082307  152.742  19.0382  1.195271
  6516.992  6517.000  0.500  2.076198  152.795  19.1614  1.201441
  6522.988  6523.000  0.500  2.070312  152.88  19.2852  1.200487
  6528.998  6529.000  0.500  2.067196  152.955  19.355  1.176326
  6529.884  6529.900  0.500  2.067093  152.956  19.3571  1.168019
  6530.786  6530.800  0.500  2.067246  152.977  19.3567  1.158235
  6531.689  6531.700  0.500  2.067458  152.974  19.3523  1.145410
  6532.590  6532.600  0.500  2.067831  152.978  19.3456  1.128721
  6533.487  6533.500  0.500  2.068714  152.982  19.329  1.105718
  6534.391  6534.400  0.500  2.069712  152.987  19.3104  1.074412
  6535.292  6535.300  0.500  2.071165  152.976  19.2809  1.026787
  6536.193  6536.200  0.500  2.073878  152.98  19.2292  0.947060
  6537.090  6537.100  0.500  2.078139  152.977  19.147  0.780067
  6537.999  6538.000  0.500  2.086743  152.976  18.9828  0.446266
  6538.897  6538.900  0.500  2.108820  152.965  18.5671  0.203912
  6539.796  6539.800  0.500  2.124275  152.965  18.2823  0.132741
  6540.692  6540.700  0.500  2.123893  152.957  18.2883  0.099950
  6541.598  6541.600  0.500  2.141632  152.966  17.9678  0.085362
  6542.503  6542.500  0.500  2.210764  152.966  16.7676  0.078140
  6543.399  6543.400  0.500  2.360090  152.993  14.4443  0.059994
  6544.296  6544.300  0.500  2.556502  152.996  11.8687  0.042002
  6545.199  6545.200  0.500  2.695510  152.986  10.3278  0.033370
  6546.102  6546.100  0.500  2.775735  152.972  9.530683  0.027413
  6546.998  6547.000  0.500  2.862959  152.991  8.735738  0.021210
  6547.898  6547.900  0.500  2.966306  152.989  7.877907  0.015260
  6548.804  6548.800  0.500  3.113423  152.989  6.800139  0.010505
  6549.702  6549.700  0.500  3.358350  152.996  5.323132  0.006543
  6550.594  6550.600  0.500  3.527954  152.97  4.491964  0.004463
  6551.502  6551.500  0.500  3.585394  152.964  4.241037  0.003532
  6552.404  6552.400  0.500  3.636649  153.495  4.043122  0.002900
  6553.298  6553.300  0.500  3.736077  153.508  3.660770  0.002208
  6554.200  6554.200  0.500  3.811536  153.512  3.394785  0.001889
  6555.104  6555.100  0.500  3.684026  153.526  3.856816  0.002051
  6555.997  6556.000  0.500  3.452544  153.556  4.862359  0.002332
  6556.900  6556.900  0.500  3.249205  153.549  5.958478  0.003018
  6557.803  6557.800  0.500  3.125951  153.514  6.738511  0.003714
  6558.700  6558.700  0.500  3.063941  153.523  7.170028  0.003981
  6559.598  6559.600  0.500  3.038029  153.534  7.358747  0.004597
  6560.502  6560.500  0.500  3.017923  153.513  7.507194  0.004752
  6561.402  6561.400  0.500  2.991372  153.419  7.704456  0.004757
  6562.299  6562.300  0.500  2.972946  153.201  7.836616  0.004723
  6563.202  6563.200  0.500  2.973541  153.49  7.846729  0.004777
  6564.003  6564.000  0.500  2.988757  153.525  7.729988  0.004591
  6567.036  6567.010  0.500  3.165203  153.538  6.480178  0.003784
  6570.192  6570.200  0.500  3.075885  153.537  7.085534  0.004039
  6573.554  6573.560  0.500  2.965502  153.572  7.914253  0.004610
  6577.084  6577.080  0.500  2.964597  153.626  7.924204  0.004453
  6580.788  6580.780  0.500  2.952709  153.608  8.018057  0.004042
  6584.655  6584.650  0.500  2.993714  153.627  7.696862  0.003841
  6588.704  6588.700  0.500  3.044549  153.631  7.315557  0.003761
  6592.914  6592.910  0.500  3.218927  153.63  6.144900  0.003619
  6597.297  6597.290  0.500  3.246280  153.674  5.980805  0.003854
  6601.850  6601.850  0.500  3.171544  153.665  6.444545  0.004241
  6606.594  6606.580  0.500  3.061828  153.687  7.192872  0.004611
  6611.483  6611.480  0.500  3.004381  153.736  7.620630  0.004499
  6616.563  6616.550  0.500  2.943953  153.712  8.094023  0.004612
  6621.802  6621.790  0.500  2.987242  153.707  7.750891  0.004320
  6627.220  6627.210  0.500  3.012406  153.721  7.558935  0.004499
  6632.797  6632.790  0.500  2.991823  153.738  7.717011  0.004748
  6638.559  6638.550  0.500  3.032692  153.753  7.408727  0.004400
  6644.491  6644.480  0.500  3.060600  153.748  7.204556  0.004325
  6650.589  6650.580  0.500  2.986952  153.774  7.756520  0.004933
  6656.862  6656.850  0.500  2.909769  153.75  8.377575  0.005752
  6663.302  6663.290  0.500  2.969893  153.757  7.889107  0.005533
  6669.908  6669.900  0.500  2.998533  153.767  7.666829  0.005151
  6676.700  6676.690  0.500  2.948055  153.713  8.060937  0.005312
  6683.662  6683.650  0.500  2.955774  153.756  8.001210  0.005071
  6690.780  6690.770  0.500  2.975266  153.744  7.846139  0.005112
  6698.076  6698.070  0.500  2.949891  153.69  8.044977  0.005559
  6705.566  6705.550  0.500  2.872563  153.675  8.690880  0.006355
  6713.204  6713.190  0.500  2.824965  153.658  9.113573  0.006665
  6721.009  6721.000  0.500  2.854754  153.633  8.844655  0.006558
  6729.002  6728.990  0.500  2.881309  153.591  8.610510  0.006352
  6737.165  6737.150  0.500  2.878150  153.528  8.634196  0.006407
  6745.481  6745.470  0.500  2.863474  153.454  8.757644  0.006574
  6753.990  6753.970  0.500  2.844085  153.408  8.926436  0.006922
  6762.660  6762.650  0.500  2.817839  153.335  9.159420  0.007232
  6771.497  6771.490  0.500  2.806826  153.236  9.254882  0.007248
  6780.516  6780.500  0.500  2.772593  153.224  9.576467  0.007905
  6789.705  6789.690  0.500  2.756416  153.17  9.729204  0.008421
  6799.063  6799.050  0.500  2.756852  152.594  9.688373  0.008453
  6808.582  6808.570  0.500  2.757806  152.613  9.680376  0.008573
  6818.285  6818.270  0.500  2.747441  152.466  9.771827  0.008619
  6828.167  6828.150  0.500  2.717863  152.133  10.0431  0.009005
  6838.205  6838.190  0.500  2.698048  152.337  10.2579  0.009467
  6848.413  6848.400  0.500  2.685204  152.184  10.38  0.009823
  6858.800  6858.790  0.500  2.667275  152.13  10.5641  0.010200
  6869.368  6869.350  0.500  2.659247  152.056  10.6441  0.010521
  6880.086  6880.080  0.500  2.654428  152.02  10.693  0.010907
  6890.991  6890.980  0.500  2.641282  151.852  10.8225  0.011253
  6902.068  6902.050  0.500  2.613780  151.639  11.1086  0.011778
  6913.305  6913.290  0.500  2.594071  151.308  11.305  0.012109
  6924.726  6924.710  0.500  2.582455  150.996  11.4135  0.012580
  6936.293  6936.290  0.500  2.566347  150.7  11.5761  0.012845
  6948.074  6948.050  0.500  2.551806  150.443  11.7256  0.013469
  6959.994  6959.980  0.500  2.538048  150.246  11.8725  0.013990
  6972.092  6972.080  0.500  2.527640  150.032  11.9797  0.014338
  6984.366  6984.350  0.500  2.511184  149.721  12.1531  0.015013
  6996.813  6996.790  0.500  2.493112  149.451  12.3525  0.015570
  7009.408  7009.410  0.500  2.475251  149.073  12.5433  0.016137
  7022.193  7022.190  0.500  2.458789  148.765  12.7252  0.016650
  7035.153  7035.150  0.500  2.441011  148.465  12.9272  0.017357
  7048.282  7048.280  0.500  2.427669  148.122  13.0706  0.017902
  7061.583  7061.580  0.500  2.414625  147.792  13.2128  0.018541
  7075.062  7075.050  0.500  2.396759  146.336  13.3184  0.019130
  7088.714  7088.700  0.500  2.380399  147.041  13.6033  0.020090
  7102.508  7102.510  0.500  2.362379  146.632  13.8121  0.020772
  7116.507  7116.500  0.500  2.345967  145.952  13.9755  0.021494
  7130.673  7130.660  0.500  2.330072  145.019  14.1087  0.021797
  7145.023  7144.990  0.500  2.314699  144.604  14.2863  0.022713
  7159.539  7159.490  0.500  2.298717  144.285  14.4845  0.023670
  7174.144  7174.160  0.500  2.281244  143.684  14.6783  0.024451
  7189.030  7189.000  0.500  2.264279  143.23  14.8823  0.025483
  7204.056  7204.020  0.500  2.247627  142.606  15.0663  0.026450
  7219.221  7219.200  0.500  2.230289  142.018  15.2666  0.027482
  7234.565  7234.560  0.500  2.213413  141.602  15.4809  0.028514
  7250.134  7250.090  0.500  2.197291  140.998  15.6654  0.029506
  7265.806  7265.790  0.500  2.181598  139.501  15.7443  0.030451
  7281.650  7281.660  0.500  2.164970  140.597  16.134  0.031932
  7297.695  7297.710  0.500  2.147907  139.987  16.3404  0.033201
  7313.898  7313.920  0.500  2.131177  139.585  16.5684  0.034427
  7330.292  7330.310  0.500  2.114282  139.075  16.7892  0.035837
  7346.853  7346.870  0.500  2.097346  138.516  17.0072  0.037235
  7363.581  7363.600  0.500  2.080512  137.963  17.2269  0.038683
  7380.507  7380.500  0.500  2.063501  137.431  17.4549  0.040026
  7391.853  7391.860  0.500  2.052362  137.077  17.6049  0.041139