Folder: webxdiviewer/xdidata/Mn (part 3)

File: Mn-K-Manganite.xdi
# XDI/1.0 BlueSky/1.5.3
# Beamline.name: 6BM
# Beamline.xray_source: NSLS-II three-pole wiggler
# Beamline.collimation: paraboloid mirror, 5 nm Rh on 30 nm Pt
# Beamline.focusing: not in use
# Beamline.harmonic_rejection: flat mirror, Si stripe, pitch = 7.0 mrad relative to beam
# Detector.i0: 10 cm N2
# Detector.i1: 25 cm N2
# Detector.i2: 25 cm N2
# Element.symbol: Mn
# Element.edge: K
# Facility.name: NSLS-II
# Facility.energy: 3.0
# Facility.current: 400.2
# Facility.mode: top-off
# Facility.gup: 305081
# Facility.saf: 305123
# Mono.name: Si(111)
# Mono.d_spacing: 3.13532
# Mono.encoder_resolution: 0.0000050 deg/ct
# Mono.angle_offset: 16.0581 deg
# Mono.scan_mode: fixed exit
# Mono.scan_type: step
# Mono.direction: forward in energy
# Sample.name: MnO(OH)
# Sample.prep: Powder in polyethylene glycol pellet
# Sample.x_position: -120.140 mm
# Sample.y_position: 112.312 mm
# Scan.experimenters: Neil Hyatt, Martin Stennett, Lucy Mottram
# Scan.edge_energy: 6539.0
# Scan.start_time: 2019-11-11T16:55:52
# Scan.end_time: 2019-11-12T02:40:17
# Scan.transient_id: 17904
# Scan.uid: c2dde32e-a877-4e3c-8eec-01e8f3f7e6ed
# Scan.plot_hint: ln(I0/It)  --  ln($5/$6)
# Scan.sequence: merge of 3 scans
# Column.1: energy eV
# Column.2: requested_energy eV
# Column.3: measurement_time seconds
# Column.4: mutrans
# Column.5: i0
# Column.6: itrans
# Column.7: irefer
# /////
#  Ilfeld, Harz, Germany
# -----
# energy   requested_energy   measurement_time   mutrans   i0   itrans   irefer
6339 6339 0.500000 1.937481 89.6885 12.9212 2.961959
6379.02 6379 0.500000 1.890785 90.462 13.6556 3.218445
6419.01 6419 0.500000 1.845167 91.0712 14.3892 3.483686
6459.01 6459 0.500000 1.801024 91.2853 15.0739 3.746880
6499 6499 0.500000 1.758576 92.1729 15.8804 4.046264
6514.99 6515 0.500000 1.743249 92.3996 16.1653 4.154827
6523.25 6523 0.500000 1.736612 92.5328 16.2983 4.203020
6529.09 6529.1 0.500000 1.733074 92.5963 16.3653 4.222549
6529.5 6529.5 0.500000 1.732908 92.5836 16.3658 4.221370
6529.88 6529.9 0.500000 1.732712 92.6833 16.3865 4.227100
6530.29 6530.3 0.500000 1.732630 92.6904 16.3892 4.226757
6530.69 6530.7 0.500000 1.732569 92.6784 16.3881 4.226198
6531.1 6531.1 0.500000 1.732563 92.6769 16.388 4.224810
6531.5 6531.5 0.500000 1.732459 92.6613 16.3869 4.223490
6531.9 6531.9 0.500000 1.732381 92.6729 16.3903 4.222462
6532.3 6532.3 0.500000 1.732379 92.6697 16.3897 4.219658
6532.7 6532.7 0.500000 1.732376 92.6805 16.3917 4.217853
6533.1 6533.1 0.500000 1.732531 92.6663 16.3866 4.214456
6533.5 6533.5 0.500000 1.732636 92.6615 16.384 4.208933
6533.89 6533.9 0.500000 1.732757 92.676 16.3846 4.205172
6534.3 6534.3 0.500000 1.733049 92.6463 16.3746 4.197009
6534.7 6534.7 0.500000 1.733406 92.6453 16.3686 4.188008
6535.1 6535.1 0.500000 1.733829 92.6442 16.3615 4.176641
6535.5 6535.5 0.500000 1.734308 92.6479 16.3543 4.161224
6535.9 6535.9 0.500000 1.735155 92.6281 16.3369 4.137200
6536.3 6536.3 0.500000 1.736234 92.7113 16.334 4.106030
6536.7 6536.7 0.500000 1.737859 92.7064 16.3067 4.050391
6537.1 6537.1 0.500000 1.740360 92.6829 16.2619 3.951562
6537.5 6537.5 0.500000 1.744998 92.8352 16.2131 3.808523
6537.9 6537.9 0.500000 1.753565 92.8107 16.0704 3.636150
6538.29 6538.3 0.500000 1.766630 92.7854 15.86 3.480657
6538.7 6538.7 0.500000 1.779452 92.7845 15.6559 3.356800
6539.1 6539.1 0.500000 1.784718 92.7555 15.5686 3.279822
6539.5 6539.5 0.500000 1.782698 92.7453 15.5983 3.238396
6539.9 6539.9 0.500000 1.779531 92.735 15.6459 3.207021
6540.3 6540.3 0.500000 1.779465 92.7309 15.6463 3.173193
6540.7 6540.7 0.500000 1.783824 92.7145 15.5755 3.133162
6541.1 6541.1 0.500000 1.791255 92.7055 15.4587 3.096225
6541.5 6541.5 0.500000 1.796915 92.6994 15.3705 3.074161
6541.9 6541.9 0.500000 1.799107 92.6712 15.3322 3.061172
6542.3 6542.3 0.500000 1.800474 92.7892 15.3308 3.048846
6542.7 6542.7 0.500000 1.802215 92.7937 15.3047 3.023156
6543.1 6543.1 0.500000 1.804884 92.7847 15.2623 2.989918
6543.5 6543.5 0.500000 1.808640 92.7655 15.202 2.953073
6543.9 6543.9 0.500000 1.813794 92.774 15.125 2.915316
6544.3 6544.3 0.500000 1.820280 92.7717 15.0277 2.874244
6544.7 6544.7 0.500000 1.828599 92.7663 14.9014 2.826481
6545.1 6545.1 0.500000 1.839470 92.7603 14.7398 2.770140
6545.5 6545.5 0.500000 1.854924 92.7621 14.5148 2.701078
6545.9 6545.9 0.500000 1.877303 92.7524 14.1932 2.612149
6546.31 6546.3 0.500000 1.909961 92.7487 13.7325 2.496534
6546.7 6546.7 0.500000 1.955286 92.7502 13.1247 2.355811
6547.1 6547.1 0.500000 2.011921 92.7459 12.4069 2.198745
6547.5 6547.5 0.500000 2.080746 92.7311 11.5734 2.023207
6547.9 6547.9 0.500000 2.160139 92.7322 10.6921 1.844107
6548.3 6548.3 0.500000 2.237488 92.726 9.899866 1.682662
6548.7 6548.7 0.500000 2.299832 92.7194 9.297923 1.557736
6549.1 6549.1 0.500000 2.341339 92.7933 8.926614 1.474146
6549.51 6549.5 0.500000 2.370440 92.8203 8.672937 1.412752
6549.9 6549.9 0.500000 2.395756 92.8037 8.455506 1.359863
6550.3 6550.3 0.500000 2.423405 92.9202 8.233765 1.307849
6550.7 6550.7 0.500000 2.453929 92.9654 7.989175 1.254697
6551.1 6551.1 0.500000 2.487739 92.9655 7.725501 1.200088
6551.49 6551.5 0.500000 2.523867 92.947 7.449688 1.144852
6551.9 6551.9 0.500000 2.558875 92.9307 7.191766 1.093366
6552.3 6552.3 0.500000 2.587074 92.9255 6.991210 1.052645
6552.7 6552.7 0.500000 2.607930 92.9198 6.847466 1.021381
6553.1 6553.1 0.500000 2.625774 92.907 6.725003 0.995665
6553.5 6553.5 0.500000 2.644343 92.9051 6.601354 0.970638
6553.9 6553.9 0.500000 2.666101 92.8862 6.457365 0.944570
6554.3 6554.3 0.500000 2.691795 92.8922 6.294344 0.917918
6554.69 6554.7 0.500000 2.722047 92.8851 6.106637 0.889599
6555.1 6555.1 0.500000 2.755976 92.8934 5.902808 0.860424
6555.5 6555.5 0.500000 2.788404 93.0027 5.722154 0.836365
6555.9 6555.9 0.500000 2.813348 92.9991 5.580401 0.819366
6556.3 6556.3 0.500000 2.829633 92.9988 5.490138 0.810081
6556.7 6556.7 0.500000 2.840195 92.9861 5.431711 0.807332
6557.1 6557.1 0.500000 2.848881 92.9895 5.385017 0.805180
6557.5 6557.5 0.500000 2.857655 92.9831 5.337508 0.802898
6557.9 6557.9 0.500000 2.868601 92.9731 5.278568 0.798103
6558.3 6558.3 0.500000 2.880346 92.9645 5.216618 0.792557
6558.7 6558.7 0.500000 2.891932 92.9523 5.156059 0.786319
6559.09 6559.1 0.500000 2.899514 92.9615 5.117877 0.782884
6559.5 6559.5 0.500000 2.899681 92.9434 5.115725 0.784488
6559.9 6559.9 0.500000 2.890943 92.9278 5.159824 0.792370
6560.3 6560.3 0.500000 2.874629 92.8513 5.240247 0.805417
6560.7 6560.7 0.500000 2.852560 92.7684 5.352817 0.822811
6561.1 6561.1 0.500000 2.828273 92.781 5.484046 0.842748
6561.5 6561.5 0.500000 2.805210 92.9363 5.622181 0.863015
6561.9 6561.9 0.500000 2.784205 92.9584 5.742398 0.880924
6562.3 6562.3 0.500000 2.765934 93.0797 5.856053 0.896937
6562.7 6562.7 0.500000 2.750405 93.0933 5.948258 0.910215
6563.1 6563.1 0.500000 2.738208 93.1051 6.023122 0.920978
6563.5 6563.5 0.500000 2.728864 93.24 6.087915 0.930023
6563.9 6563.9 0.500000 2.722144 93.2584 6.130272 0.935731
6564.29 6564.3 0.500000 2.717159 93.2506 6.159878 0.939750
6564.7 6564.7 0.500000 2.713274 93.2661 6.185227 0.943220
6565.1 6565.1 0.500000 2.710118 93.2725 6.205215 0.945772
6565.5 6565.5 0.500000 2.707020 93.2522 6.223462 0.948798
6565.9 6565.9 0.500000 2.703485 93.2777 6.247052 0.951876
6566.3 6566.3 0.500000 2.699588 93.2712 6.270941 0.955531
6566.7 6566.7 0.500000 2.695524 93.2675 6.296063 0.959908
6567.1 6567.1 0.500000 2.691701 93.2662 6.320189 0.964238
6567.5 6567.5 0.500000 2.688419 93.2431 6.339465 0.966890
6567.9 6567.9 0.500000 2.685967 93.274 6.357082 0.970300
6568.31 6568.3 0.500000 2.685123 93.3944 6.370641 0.972973
6568.7 6568.7 0.500000 2.685454 93.3902 6.368244 0.973110
6570.09 6570.08 0.710000 2.696794 132.612 8.940895 1.368591
6574.58 6574.58 0.760000 2.696466 141.991 9.574948 1.463747
6579.4 6579.39 0.810000 2.597876 151.423 11.2701 1.704007
6584.52 6584.51 0.860000 2.521726 160.827 12.9172 1.937110
6589.94 6589.93 0.910000 2.488660 170.22 14.1317 2.157601
6595.66 6595.65 0.960000 2.516277 179.689 14.5116 2.256102
6601.69 6601.68 1.010000 2.578639 188.76 14.3224 2.251917
6608.02 6608.01 1.060000 2.591318 198.606 14.8796 2.331618
6614.66 6614.65 1.110000 2.577431 208.014 15.8026 2.460975
6621.61 6621.6 1.160000 2.563967 217.476 16.7451 2.616216
6628.85 6628.84 1.210000 2.565577 226.949 17.4466 2.751678
6636.41 6636.4 1.260000 2.569974 236.892 18.1311 2.876462
6644.27 6644.26 1.310000 2.542089 246.333 19.3865 3.090859
6652.43 6652.42 1.360000 2.504534 255.861 20.9071 3.371972
6660.9 6660.89 1.410000 2.493836 265.392 21.9194 3.560988
6669.67 6669.66 1.460000 2.486309 274.992 22.8841 3.721449
6678.74 6678.74 1.510000 2.471057 284.693 24.0552 3.920673
6688.12 6688.12 1.560000 2.461090 294.241 25.1111 4.124148
6697.8 6697.8 1.610000 2.446562 303.687 26.2964 4.371557
6707.8 6707.79 1.660000 2.450393 313.106 27.0084 4.539984
6718.09 6718.09 1.710000 2.441755 322.501 28.0601 4.746624
6728.69 6728.69 1.760000 2.432009 331.875 29.1584 4.957910
6739.6 6739.6 1.810000 2.405851 341.144 30.767 5.262096
6750.81 6750.81 1.860000 2.385589 350.306 32.2402 5.564419
6762.32 6762.32 1.910000 2.364986 359.422 33.768 5.886375
6774.14 6774.14 1.960000 2.350887 368.754 35.1365 6.184005
6786.27 6786.27 2.010000 2.338313 378.418 36.5138 6.492972
6798.7 6798.7 2.060000 2.320329 387.253 38.0439 6.826900
6811.43 6811.43 2.110000 2.305585 371.751 37.0637 6.698975
6824.47 6824.47 2.160000 2.297211 402.263 40.4431 7.364309
6837.82 6837.82 2.210000 2.281995 412.175 42.0747 7.736396
6851.48 6851.47 2.260000 2.260156 420.927 43.917 8.157323
6865.43 6865.42 2.310000 2.244724 428.988 45.4537 8.532573
6879.68 6879.68 2.360000 2.225085 438.426 47.3747 8.981614
6894.24 6894.24 2.410000 2.207105 448.157 49.305 9.435404
6909.11 6909.11 2.460000 2.192704 456.698 50.9736 9.844860
6924.28 6924.28 2.510000 2.173187 464.723 52.8916 10.3129
6939.77 6939.76 2.560000 2.155042 473.836 54.9165 10.8147
6955.55 6955.54 2.610000 2.138998 482.365 56.8091 11.3013
6971.63 6971.63 2.660000 2.122792 490.918 58.7611 11.816
6988.02 6988.02 2.710000 2.104491 498.977 60.8289 12.3595
7004.73 7004.72 2.760000 2.088456 507.082 62.8161 12.8919
7021.73 7021.72 2.810000 2.067691 515.415 65.1878 13.5122
7039.03 7039.03 2.860000 2.048482 523.044 67.4356 14.1232
7056.64 7056.64 2.910000 2.030956 530.474 69.6026 14.7302
7074.56 7074.56 2.960000 2.011964 533.692 71.3678 15.2644
7092.78 7092.78 3.010000 1.993306 545.532 74.3247 16.0674
7111.31 7111.3 3.060000 1.975523 551.773 76.5238 16.7105
7130.13 7130.13 3.110000 1.956585 532.04 75.1978 16.5283
7149.28 7149.27 3.160000 1.937563 546.736 78.7592 17.5043
7168.72 7168.71 3.210000 1.919428 555.979 81.556 18.3246
7188.46 7188.45 3.260000 1.899313 561.055 83.9732 19.07
7208.5 7208.5 3.310000 1.880334 570.162 86.9707 19.9668
7228.86 7228.86 3.360000 1.861343 577.023 89.7046 20.8256
7249.52 7249.52 3.410000 1.841770 582.358 92.3233 21.6679
7270.48 7270.48 3.460000 1.821802 590.798 95.5508 22.6675
7281.08 7281.08 3.490000 1.811945 584.642 95.4915 22.7781

File: Mn-K-Marokite.xdi
# XDI/1.0 BlueSky/1.5.3
# Beamline.name: 6BM
# Beamline.xray_source: NSLS-II three-pole wiggler
# Beamline.collimation: paraboloid mirror, 5 nm Rh on 30 nm Pt
# Beamline.focusing: not in use
# Beamline.harmonic_rejection: flat mirror, Si stripe, pitch = 7.0 mrad relative to beam
# Detector.i0: 10 cm N2
# Detector.i1: 25 cm N2
# Detector.i2: 25 cm N2
# Element.symbol: Mn
# Element.edge: K
# Facility.name: NSLS-II
# Facility.energy: 3.0
# Facility.current: 400.2
# Facility.mode: top-off
# Facility.gup: 305081
# Facility.saf: 305123
# Mono.name: Si(111)
# Mono.d_spacing: 3.13532
# Mono.encoder_resolution: 0.0000050 deg/ct
# Mono.angle_offset: 16.0581 deg
# Mono.scan_mode: fixed exit
# Mono.scan_type: step
# Mono.direction: forward in energy
# Sample.name: CaMn2O4
# Sample.prep: Powder in polyethylene glycol pellet
# Sample.x_position: -120.140 mm
# Sample.y_position: 112.312 mm
# Scan.experimenters: Neil Hyatt, Martin Stennett, Lucy Mottram
# Scan.edge_energy: 6539.0
# Scan.start_time: 2019-11-11T18:34:38
# Scan.end_time: 2019-11-12T05:53:09
# Scan.transient_id: 17909
# Scan.uid: 981eabd5-0629-4f51-b013-e7402f0ca6d9
# Scan.plot_hint: ln(I0/It)  --  ln($5/$6)
# Scan.sequence: merge of 3 scans
# Column.1: energy eV
# Column.2: requested_energy eV
# Column.3: measurement_time seconds
# Column.4: mutrans
# Column.5: i0
# Column.6: itrans
# Column.7: irefer
# /////
#  Tachgagalt nr. Ourzazate, Morocco
# -----
# energy   requested_energy   measurement_time   mutrans   i0   itrans   irefer
6339 6339 0.500000 2.442026 89.6198 7.795606 1.791999
6379.02 6379 0.500000 2.388560 90.3808 8.293560 1.959802
6419.01 6419 0.500000 2.336793 91.092 8.802903 2.137332
6459.01 6459 0.500000 2.286046 91.2838 9.280673 2.312361
6499 6499 0.500000 2.237282 92.1401 9.835775 2.511653
6514.99 6515 0.500000 2.219158 92.3527 10.0387 2.586296
6523.03 6523 0.500000 2.210852 92.5028 10.1392 2.620868
6529.09 6529.1 0.500000 2.205595 92.5741 10.2003 2.637906
6529.49 6529.5 0.500000 2.205406 92.5243 10.1967 2.637041
6529.88 6529.9 0.500000 2.205044 92.5343 10.2015 2.637852
6530.29 6530.3 0.500000 2.204811 92.6191 10.2131 2.639931
6530.69 6530.7 0.500000 2.204619 92.6073 10.2138 2.639932
6531.09 6531.1 0.500000 2.204370 92.6149 10.2172 2.640523
6531.5 6531.5 0.500000 2.204164 92.6253 10.2204 2.639649
6531.89 6531.9 0.500000 2.203944 92.6045 10.2203 2.638776
6532.31 6532.3 0.500000 2.203752 92.6049 10.2223 2.638556
6532.7 6532.7 0.500000 2.203600 92.5959 10.223 2.636756
6533.11 6533.1 0.500000 2.203624 92.6063 10.2238 2.635564
6533.5 6533.5 0.500000 2.203485 92.5886 10.2233 2.632748
6533.9 6533.9 0.500000 2.203446 92.5759 10.2223 2.629924
6534.3 6534.3 0.500000 2.203436 92.5846 10.2234 2.626656
6534.7 6534.7 0.500000 2.203444 92.5671 10.2214 2.621426
6535.1 6535.1 0.500000 2.203583 92.5653 10.2197 2.614813
6535.5 6535.5 0.500000 2.203807 92.5767 10.2187 2.605525
6535.9 6535.9 0.500000 2.203951 92.5548 10.2148 2.592462
6536.3 6536.3 0.500000 2.204512 92.6553 10.2203 2.575159
6536.7 6536.7 0.500000 2.205196 92.6611 10.2138 2.541794
6537.1 6537.1 0.500000 2.206293 92.6659 10.2032 2.484121
6537.49 6537.5 0.500000 2.208168 92.6635 10.1839 2.398162
6537.9 6537.9 0.500000 2.211844 92.7676 10.1579 2.302490
6538.3 6538.3 0.500000 2.218035 92.7594 10.0942 2.218912
6538.7 6538.7 0.500000 2.226966 92.7508 10.0035 2.149489
6539.1 6539.1 0.500000 2.234036 92.7593 9.934311 2.097110
6539.5 6539.5 0.500000 2.234715 92.7528 9.926694 2.064192
6539.9 6539.9 0.500000 2.230843 92.7556 9.965508 2.046332
6540.3 6540.3 0.500000 2.228430 92.7584 9.989813 2.029612
6540.7 6540.7 0.500000 2.230952 92.7441 9.962942 2.007640
6541.1 6541.1 0.500000 2.237714 92.7486 9.896392 1.985639
6541.5 6541.5 0.500000 2.244587 92.7348 9.827308 1.968395
6541.9 6541.9 0.500000 2.249766 92.7393 9.777118 1.955561
6542.3 6542.3 0.500000 2.254127 92.735 9.733841 1.938904
6542.7 6542.7 0.500000 2.258425 92.7306 9.691631 1.917798
6543.1 6543.1 0.500000 2.261923 92.8401 9.669147 1.897313
6543.5 6543.5 0.500000 2.265435 92.8279 9.633880 1.875169
6543.9 6543.9 0.500000 2.271205 92.8354 9.579381 1.849913
6544.3 6544.3 0.500000 2.281538 92.8068 9.477945 1.815689
6544.69 6544.7 0.500000 2.298535 92.8062 9.319380 1.770586
6545.1 6545.1 0.500000 2.323217 92.7865 9.088586 1.711105
6545.5 6545.5 0.500000 2.357536 92.7786 8.780486 1.636739
6545.9 6545.9 0.500000 2.402419 92.7884 8.397819 1.547785
6546.3 6546.3 0.500000 2.456415 92.7818 7.954828 1.448547
6546.7 6546.7 0.500000 2.509977 92.7856 7.540924 1.355238
6547.1 6547.1 0.500000 2.545866 92.7687 7.272542 1.289379
6547.5 6547.5 0.500000 2.559683 92.7604 7.172954 1.254960
6547.9 6547.9 0.500000 2.563521 92.7551 7.145202 1.232203
6548.3 6548.3 0.500000 2.570041 92.7145 7.095186 1.206453
6548.7 6548.7 0.500000 2.583654 92.7281 7.000471 1.172872
6549.1 6549.1 0.500000 2.602417 92.7806 6.875174 1.136126
6549.5 6549.5 0.500000 2.626049 92.8423 6.717947 1.095359
6549.9 6549.9 0.500000 2.652574 92.8117 6.540803 1.052589
6550.3 6550.3 0.500000 2.677410 92.8377 6.382228 1.014121
6550.7 6550.7 0.500000 2.695689 92.9386 6.273273 0.985176
6551.1 6551.1 0.500000 2.706238 92.9126 6.205297 0.964124
6551.5 6551.5 0.500000 2.711381 92.9234 6.174374 0.948787
6551.9 6551.9 0.500000 2.716519 92.9152 6.142248 0.933763
6552.3 6552.3 0.500000 2.725938 92.9221 6.084642 0.916099
6552.7 6552.7 0.500000 2.741415 92.9137 5.990653 0.893904
6553.1 6553.1 0.500000 2.761994 92.8904 5.867984 0.868628
6553.5 6553.5 0.500000 2.786180 92.8905 5.727511 0.842298
6553.9 6553.9 0.500000 2.811498 92.8817 5.583681 0.816957
6554.3 6554.3 0.500000 2.835093 92.8802 5.453274 0.795399
6554.69 6554.7 0.500000 2.856045 92.9045 5.341973 0.778071
6555.1 6555.1 0.500000 2.875055 92.8864 5.239993 0.763901
6555.5 6555.5 0.500000 2.891895 92.8928 5.152014 0.752930
6555.9 6555.9 0.500000 2.907077 92.8746 5.074404 0.744669
6556.3 6556.3 0.500000 2.920543 92.9822 5.012291 0.739505
6556.7 6556.7 0.500000 2.932638 92.9627 4.950527 0.735118
6557.11 6557.1 0.500000 2.941971 92.9675 4.904848 0.733085
6557.5 6557.5 0.500000 2.947096 92.9605 4.879549 0.734129
6557.9 6557.9 0.500000 2.948511 92.9601 4.872697 0.736923
6558.3 6558.3 0.500000 2.947489 92.9437 4.876916 0.740953
6558.7 6558.7 0.500000 2.944302 92.9402 4.892204 0.746714
6559.1 6559.1 0.500000 2.938721 92.9469 4.919671 0.752911
6559.5 6559.5 0.500000 2.931064 92.918 4.956092 0.759798
6559.9 6559.9 0.500000 2.921835 92.8962 5.001061 0.767831
6560.3 6560.3 0.500000 2.910207 92.8363 5.055995 0.776976
6560.7 6560.7 0.500000 2.895880 92.7336 5.123698 0.787463
6561.1 6561.1 0.500000 2.879291 92.7222 5.208858 0.800300
6561.5 6561.5 0.500000 2.862065 92.8707 5.307750 0.814584
6561.9 6561.9 0.500000 2.845911 92.9212 5.397050 0.827909
6562.3 6562.3 0.500000 2.831283 93.0216 5.482531 0.839928
6562.7 6562.7 0.500000 2.819154 93.0216 5.549584 0.849559
6563.1 6563.1 0.500000 2.810229 93.02 5.598851 0.856155
6563.5 6563.5 0.500000 2.804638 93.0285 5.630767 0.859882
6563.9 6563.9 0.500000 2.801788 93.1136 5.652078 0.862567
6564.3 6564.3 0.500000 2.801029 93.1071 5.656012 0.862892
6564.7 6564.7 0.500000 2.802372 93.136 5.650228 0.861548
6565.1 6565.1 0.500000 2.804762 93.1124 5.635064 0.858760
6565.5 6565.5 0.500000 2.808140 93.1125 5.616098 0.855895
6565.9 6565.9 0.500000 2.812503 93.0743 5.589520 0.851541
6566.3 6566.3 0.500000 2.817043 93.1 5.565655 0.847533
6566.7 6566.7 0.500000 2.821669 93.081 5.538796 0.844232
6567.1 6567.1 0.500000 2.825995 93.1106 5.516697 0.841212
6567.5 6567.5 0.500000 2.830003 93.0968 5.494053 0.837830
6567.9 6567.9 0.500000 2.834156 93.0966 5.471011 0.834926
6568.3 6568.3 0.500000 2.838599 93.0938 5.446551 0.831103
6568.7 6568.7 0.500000 2.843270 93.0932 5.421117 0.828350
6570.09 6570.08 0.710000 2.856880 132.302 7.600715 1.163396
6574.58 6574.58 0.760000 2.822865 141.749 8.423946 1.287940
6579.39 6579.39 0.810000 2.760872 151.133 9.556529 1.445066
6584.51 6584.51 0.860000 2.703805 160.522 10.7466 1.610703
6589.94 6589.93 0.910000 2.696615 169.902 11.457 1.749571
6595.66 6595.65 0.960000 2.723656 179.332 11.7703 1.829701
6601.69 6601.68 1.010000 2.734144 188.381 12.2352 1.922778
6608.02 6608.01 1.060000 2.720385 198.209 13.0518 2.044469
6614.66 6614.65 1.110000 2.718205 207.678 13.7053 2.134353
6621.61 6621.6 1.160000 2.716613 217.318 14.3642 2.242839
6628.84 6628.84 1.210000 2.728831 226.612 14.7968 2.333544
6636.41 6636.4 1.260000 2.723956 236.265 15.5025 2.459197
6644.27 6644.26 1.310000 2.700054 245.975 16.5299 2.635277
6652.42 6652.42 1.360000 2.669873 255.475 17.6943 2.852496
6660.9 6660.89 1.410000 2.650732 264.972 18.7069 3.039406
6669.67 6669.66 1.460000 2.635764 274.552 19.6756 3.199836
6678.75 6678.74 1.510000 2.632545 284.373 20.445 3.331135
6688.12 6688.12 1.560000 2.628123 293.862 21.2207 3.484197
6697.8 6697.8 1.610000 2.616724 303.384 22.1596 3.683273
6707.79 6707.79 1.660000 2.605069 312.782 23.1138 3.884414
6718.08 6718.09 1.710000 2.600859 322.198 23.91 4.043468
6728.69 6728.69 1.760000 2.585657 331.556 24.9816 4.246551
6739.6 6739.6 1.810000 2.565354 340.861 26.2093 4.482162
6750.81 6750.81 1.860000 2.549965 349.996 27.329 4.715394
6762.32 6762.32 1.910000 2.530079 358.904 28.5873 4.983239
6774.14 6774.14 1.960000 2.512811 368.022 29.8241 5.248842
6786.27 6786.27 2.010000 2.502234 377.041 30.8801 5.491965
6798.7 6798.7 2.060000 2.487867 386.354 32.1008 5.759352
6811.43 6811.43 2.110000 2.472860 370.857 31.279 5.652094
6824.47 6824.47 2.160000 2.461150 401.345 34.2492 6.236247
6837.83 6837.82 2.210000 2.444634 411.481 35.6986 6.562283
6851.47 6851.47 2.260000 2.427657 419.968 37.0585 6.883092
6865.43 6865.42 2.310000 2.412237 428.098 38.3629 7.199912
6879.68 6879.68 2.360000 2.394791 437.349 39.8816 7.560419
6894.24 6894.24 2.410000 2.376959 446.962 41.4915 7.938820
6909.11 6909.11 2.460000 2.358592 455.42 43.0604 8.314121
6924.28 6924.28 2.510000 2.340875 463.41 44.5991 8.693169
6939.76 6939.76 2.560000 2.325319 471.902 46.1285 9.082158
6955.55 6955.54 2.610000 2.309735 480.759 47.7326 9.494717
6971.63 6971.63 2.660000 2.292811 489.589 49.4391 9.938619
6988.03 6988.02 2.710000 2.274362 497.577 51.1816 10.396
7004.73 7004.72 2.760000 2.256293 505.583 52.9532 10.8639
7021.73 7021.72 2.810000 2.237590 513.943 54.8447 11.3659
7039.03 7039.03 2.860000 2.219621 521.384 56.6472 11.8613
7056.65 7056.64 2.910000 2.202009 528.659 58.4582 12.3687
7074.57 7074.56 2.960000 2.183605 531.805 59.8984 12.808
7092.78 7092.78 3.010000 2.164670 543.763 62.4156 13.4893
7111.31 7111.3 3.060000 2.146011 549.804 64.2976 14.0358
7130.13 7130.13 3.110000 2.127801 530.644 63.1973 13.8855
7149.28 7149.27 3.160000 2.109597 545.295 66.1358 14.6952
7168.72 7168.71 3.210000 2.090445 554.312 68.5289 15.3923
7188.45 7188.45 3.260000 2.071083 559.838 70.5649 16.0199
7208.5 7208.5 3.310000 2.051515 568.12 73.0236 16.7599
7228.86 7228.86 3.360000 2.031914 575.5 75.4365 17.5064
7249.52 7249.52 3.410000 2.012085 580.325 77.592 18.2044
7270.49 7270.48 3.460000 1.992859 588.932 80.2716 19.0376
7281.08 7281.08 3.490000 1.983291 582.713 80.1874 19.1225