Folder: webxdiviewer/xdidata/Nb

Note: xdidata/README.md
# bmm-standards
A pretty webpage for BMM's collection of common XAFS materials

[BMM's common materials collection](./BMM-standards.html)

Plotting of the data will happen soon.

Periodic table adapted from [some guy named Daniel](https://codepen.io/gooseofmusic/pen/PjKdNQ)

[This](https://www.coderstool.com/scss-to-css) is a helpful tool for
dealing with Sassy CSS.

File: Nb-K-NiobiumCarbide.xdi
# XDI/1.0 BlueSky/1.10.0 BMM/2023-1.0-py310-tiled
# Beamline.name: BMM (06BM) -- Beamline for Materials Measurement (NIST)
# Beamline.xray_source: NSLS-II three-pole wiggler
# Beamline.collimation: paraboloid mirror, 5 nm Rh on 30 nm Pt
# Beamline.focusing: not in use
# Beamline.harmonic_rejection: flat mirror, Pt stripe, pitch = 7.0 mrad relative to beam
# Beamline.software: Bluesky 1.10.0, Ophyd 1.7.0, DataBroker 2.0.0b13, Python 3.10.8, 2023-1.0-py310-tiled
# Detector.I0: 10 cm N2
# Detector.I1: 25 cm N2
# Detector.I2: 25 cm N2
# Element.symbol: Nb
# Element.edge: K
# Element.reference: Nb
# Element.reference_material: Nb foil
# Facility.name: NSLS-II
# Facility.energy: 3.0
# Facility.current: 400.2
# Facility.mode: top-off
# Facility.GUP: 301027
# Facility.SAF: 310583
# Facility.cycle: 2023-2
# Mono.name: Si(111)
# Mono.d_spacing: 3.13519
# Mono.encoder_resolution: 0.0000050 deg/ct
# Mono.angle_offset: 16.0754 deg
# Mono.scan_mode: pseudo channel cut
# Mono.scan_type: step
# Mono.direction: forward in energy
# Sample.name: NbC
# Sample.prep: powder on tape
# Sample.x: 117.785 mm
# Sample.y: 114.695 mm
# Sample.SDD_position: 205.000 mm
# Scan.experimenters: Bruce Ravel
# Scan.edge_energy: 18985.6
# Scan.start_time: 2023-06-23T20:31:44
# Scan.end_time: 2023-06-23T20:39:24
# Scan.transient_id: 85011
# Scan.uid: 3b3232ec-8769-407f-bae0-1b7477bf5faa
# Scan.plot_hint: ln(I0/It)  --  ln($5/$6)
# Column.1: energy eV
# Column.2: requested_energy eV
# Column.3: measurement_time seconds
# Column.4: xmu
# Column.5: I0 nA
# Column.6: It nA
# Column.7: Ir nA
# ///////////
# BMM standards collection
# -----------
# energy  requested_energy  measurement_time  xmu  I0  It  Ir
  18785.464  18785.600  0.500  -0.447605  10.0227  15.6811  13.5701
  18815.668  18815.600  0.500  -0.448207  9.966939  15.6033  13.5118
  18845.674  18845.600  0.500  -0.449368  9.891284  15.5028  13.4307
  18875.729  18875.600  0.500  -0.450083  9.811851  15.3893  13.3328
  18905.724  18905.600  0.500  -0.450544  9.737698  15.2801  13.2434
  18935.705  18935.600  0.500  -0.450910  9.665239  15.1719  13.1424
  18957.669  18957.600  0.500  -0.449655  9.604912  15.0583  13.0158
  18963.634  18963.600  0.500  -0.449011  9.588548  15.023  12.9706
  18969.682  18969.600  0.500  -0.447726  9.572603  14.9787  12.9039
  18975.591  18975.600  0.500  -0.445742  9.559592  14.9287  12.8065
  18976.460  18976.500  0.500  -0.445128  9.550221  14.9049  12.7757
  18977.409  18977.400  0.500  -0.444673  9.541677  14.8848  12.7392
  18978.278  18978.300  0.500  -0.444039  9.521902  14.8446  12.6914
  18979.164  18979.200  0.500  -0.443392  9.509401  14.8155  12.6429
  18980.112  18980.100  0.500  -0.442634  9.502321  14.7932  12.5988
  18981.014  18981.000  0.500  -0.442013  9.504108  14.7868  12.5576
  18981.899  18981.900  0.500  -0.441052  9.506950  14.7771  12.5029
  18982.801  18982.800  0.500  -0.439670  9.517558  14.7731  12.4445
  18983.702  18983.700  0.500  -0.438008  9.525049  14.7602  12.3501
  18984.588  18984.600  0.500  -0.436238  9.530696  14.7428  12.2192
  18985.490  18985.500  0.500  -0.433812  9.526880  14.7012  12.0282
  18986.392  18986.400  0.500  -0.430475  9.522958  14.6462  11.7857
  18987.246  18987.300  0.500  -0.426255  9.526356  14.5897  11.5273
  18988.164  18988.200  0.500  -0.420480  9.547399  14.5377  11.2812
  18989.066  18989.100  0.500  -0.413307  9.543715  14.4283  11.0188
  18989.953  18990.000  0.500  -0.405228  9.540003  14.3066  10.8002
  18990.871  18990.900  0.500  -0.395941  9.532565  14.1633  10.5906
  18991.789  18991.800  0.500  -0.385643  9.529756  14.0141  10.3835
  18992.723  18992.700  0.500  -0.374595  9.529872  13.8603  10.1683
  18993.610  18993.600  0.500  -0.363765  9.524080  13.7026  9.940225
  18994.497  18994.500  0.500  -0.351784  9.525677  13.5417  9.703489
  18995.590  18995.400  0.500  -0.336040  9.516399  13.3172  9.385189
  18996.176  18996.300  0.500  -0.327369  9.510996  13.1947  9.212731
  18997.094  18997.200  0.500  -0.312095  9.510313  12.9938  8.921426
  18997.981  18998.100  0.500  -0.296496  9.506576  12.7876  8.620998
  18998.900  18999.000  0.500  -0.278928  9.502474  12.5595  8.305132
  18999.835  18999.900  0.500  -0.260156  9.504283  12.3283  7.989833
  19000.707  19000.800  0.500  -0.240556  9.500480  12.0842  7.686870
  19001.594  19001.700  0.500  -0.219607  9.495331  11.8273  7.405021
  19002.545  19002.600  0.500  -0.198283  9.491575  11.5732  7.154613
  19003.433  19003.500  0.500  -0.180544  9.489881  11.3676  6.983890
  19004.336  19004.400  0.500  -0.165308  9.492099  11.1984  6.865329
  19005.304  19005.300  0.500  -0.154001  9.483146  11.062  6.800800
  19006.176  19006.200  0.500  -0.147082  9.484115  10.9869  6.787797
  19007.079  19007.100  0.500  -0.143583  9.475132  10.9381  6.794825
  19007.999  19008.000  0.500  -0.142717  9.476634  10.9304  6.823965
  19008.872  19008.900  0.500  -0.142951  9.481513  10.9386  6.843017
  19009.760  19009.800  0.500  -0.142989  9.472343  10.9284  6.837933
  19010.616  19010.600  0.500  -0.142935  9.469283  10.9243  6.829646
  19013.663  19013.610  0.500  -0.139331  9.462108  10.8767  6.756232
  19016.821  19016.800  0.500  -0.133083  9.454142  10.7999  6.701778
  19020.187  19020.160  0.500  -0.125772  9.439151  10.7042  6.614426
  19023.697  19023.680  0.500  -0.140627  9.437462  10.8625  6.641109
  19027.383  19027.380  0.500  -0.173634  9.422716  11.2095  6.778609
  19031.214  19031.250  0.500  -0.188011  9.415573  11.3632  6.886631
  19035.349  19035.300  0.500  -0.194033  9.404538  11.4184  7.051986
  19039.533  19039.510  0.500  -0.199214  9.394320  11.4652  7.153694
  19043.909  19043.890  0.500  -0.192039  9.384907  11.3719  7.078211
  19048.495  19048.450  0.500  -0.174940  9.371251  11.1628  6.928298
  19053.195  19053.180  0.500  -0.161346  9.343084  10.979  6.839692
  19058.088  19058.080  0.500  -0.165515  9.346638  11.029  6.892159
  19063.144  19063.150  0.500  -0.175811  9.337433  11.1322  6.909864
  19068.425  19068.390  0.500  -0.174994  9.323770  11.1068  6.830669
  19073.886  19073.810  0.500  -0.167209  9.302891  10.996  6.808089
  19079.429  19079.390  0.500  -0.168222  9.291538  10.9937  6.875842
  19085.167  19085.150  0.500  -0.171640  9.278843  11.0163  6.888679
  19091.085  19091.080  0.500  -0.177890  9.264195  11.0679  6.920902
  19097.167  19097.180  0.500  -0.186352  9.245416  11.1393  6.956967
  19103.508  19103.450  0.500  -0.192969  9.226198  11.1899  6.948478
  19109.935  19109.890  0.500  -0.191362  9.216070  11.1597  6.928887
  19116.477  19116.500  0.500  -0.185551  9.192113  11.0662  6.920142
  19123.249  19123.290  0.500  -0.179248  9.191676  10.9962  6.934921
  19130.299  19130.250  0.500  -0.177073  9.159264  10.9336  6.914213
  19137.387  19137.370  0.500  -0.181711  9.149872  10.9731  6.930667
  19144.705  19144.670  0.500  -0.188698  9.126647  11.022  6.941206
  19152.205  19152.150  0.500  -0.194085  9.150307  11.1103  6.996848
  19159.793  19159.790  0.500  -0.192522  9.125552  11.0629  6.925275
  19167.595  19167.600  0.500  -0.186998  9.101182  10.9726  6.835322
  19175.615  19175.590  0.500  -0.186609  9.082826  10.9462  6.882629
  19183.753  19183.750  0.500  -0.188225  9.049966  10.9243  6.968701
  19192.061  19192.070  0.500  -0.193640  9.041377  10.9732  7.017923
  19200.586  19200.570  0.500  -0.199703  9.009682  11.0012  7.021986
  19209.216  19209.250  0.500  -0.198980  8.999484  10.9808  6.982744
  19218.146  19218.090  0.500  -0.199343  8.976933  10.9572  6.925303
  19227.133  19227.100  0.500  -0.200536  8.953467  10.9416  6.895765
  19236.290  19236.290  0.500  -0.196689  8.927565  10.8681  6.852763
  19245.684  19245.650  0.500  -0.189146  8.901928  10.7555  6.817761
  19255.185  19255.170  0.500  -0.190537  8.885630  10.7507  6.867258
  19264.907  19264.870  0.500  -0.197872  8.862145  10.8012  6.931063
  19274.753  19274.750  0.500  -0.202592  8.832629  10.8162  6.931062
  19284.838  19284.790  0.500  -0.205942  8.809490  10.8241  6.905061
  19295.048  19295.000  0.500  -0.208179  8.784096  10.817  6.882493
  19305.433  19305.390  0.500  -0.203458  8.760716  10.7374  6.830449
  19315.992  19315.950  0.500  -0.198540  8.732268  10.6501  6.791880
  19326.662  19326.680  0.500  -0.197205  8.687288  10.5811  6.762444
  19337.638  19337.580  0.500  -0.204220  8.677603  10.6437  6.829630
  19348.661  19348.650  0.500  -0.209213  8.651368  10.6646  6.851520
  19359.926  19359.890  0.500  -0.207502  8.623457  10.612  6.824306
  19371.336  19371.310  0.500  -0.209228  8.590009  10.5891  6.802167
  19382.958  19382.890  0.500  -0.209553  8.560990  10.5568  6.785695
  19394.643  19394.650  0.500  -0.208970  8.526109  10.5076  6.751611
  19406.640  19406.580  0.500  -0.208251  8.499364  10.4672  6.723323
  19418.718  19418.680  0.500  -0.208569  8.464035  10.427  6.708036
  19431.027  19430.950  0.500  -0.211057  8.430153  10.4111  6.716420
  19443.402  19443.390  0.500  -0.214964  8.399053  10.4133  6.726875
  19456.025  19456.010  0.500  -0.216544  8.365366  10.3879  6.713938
  19468.847  19468.790  0.500  -0.217149  8.242623  10.2417  6.626276
  19481.786  19481.750  0.500  -0.214062  8.294761  10.2747  6.651529
  19494.927  19494.880  0.500  -0.213226  8.266996  10.2318  6.625721
  19508.235  19508.180  0.500  -0.215930  8.235336  10.2202  6.622345
  19521.679  19521.650  0.500  -0.217008  8.195661  10.1819  6.595675
  19535.359  19535.300  0.500  -0.220047  8.163414  10.1727  6.598417
  19549.176  19549.110  0.500  -0.222284  8.126730  10.1497  6.599607
  19563.114  19563.100  0.500  -0.222093  8.090203  10.1021  6.578857
  19577.341  19577.260  0.500  -0.221662  8.055960  10.055  6.554440
  19591.656  19591.590  0.500  -0.221890  8.018402  10.0104  6.527125
  19606.093  19606.090  0.500  -0.223720  7.934934  9.924384  6.476250
  19620.823  19620.760  0.500  -0.224714  7.949464  9.952449  6.497244
  19635.659  19635.600  0.500  -0.225500  7.894554  9.891475  6.462075
  19650.687  19650.620  0.500  -0.227874  7.873924  9.889071  6.466378
  19665.840  19665.800  0.500  -0.229338  7.826215  9.843558  6.448642
  19681.238  19681.160  0.500  -0.230004  7.804846  9.823218  6.442499
  19696.712  19696.690  0.500  -0.229942  7.762661  9.769516  6.416212
  19712.397  19712.390  0.500  -0.230323  7.720848  9.720602  6.387804
  19728.330  19728.260  0.500  -0.232070  7.680208  9.686336  6.370914
  19744.323  19744.310  0.500  -0.233595  7.559311  9.548410  6.284142
  19760.547  19760.520  0.500  -0.234958  7.608103  9.623149  6.338703
  19776.936  19776.910  0.500  -0.236730  7.565463  9.586192  6.320973
  19793.542  19793.470  0.500  -0.236734  7.527139  9.537671  6.299087
  19810.262  19810.200  0.500  -0.237878  7.486631  9.497201  6.280733
  19827.131  19827.100  0.500  -0.238503  7.445978  9.451536  6.257963
  19838.479  19838.460  0.500  -0.239330  7.419117  9.425232  6.243343

File: Nb-K-NiobiumDioxide.xdi
# XDI/1.0 BlueSky/1.10.0 BMM/2023-1.0-py310-tiled
# Beamline.name: BMM (06BM) -- Beamline for Materials Measurement (NIST)
# Beamline.xray_source: NSLS-II three-pole wiggler
# Beamline.collimation: paraboloid mirror, 5 nm Rh on 30 nm Pt
# Beamline.focusing: not in use
# Beamline.harmonic_rejection: flat mirror, Pt stripe, pitch = 7.0 mrad relative to beam
# Beamline.software: Bluesky 1.10.0, Ophyd 1.7.0, DataBroker 2.0.0b13, Python 3.10.8, 2023-1.0-py310-tiled
# Detector.I0: 10 cm N2
# Detector.I1: 25 cm N2
# Detector.I2: 25 cm N2
# Element.symbol: Nb
# Element.edge: K
# Element.reference: Nb
# Element.reference_material: Nb foil
# Facility.name: NSLS-II
# Facility.energy: 3.0
# Facility.current: 400.3
# Facility.mode: top-off
# Facility.GUP: 301027
# Facility.SAF: 310583
# Facility.cycle: 2023-2
# Mono.name: Si(111)
# Mono.d_spacing: 3.13519
# Mono.encoder_resolution: 0.0000050 deg/ct
# Mono.angle_offset: 16.0754 deg
# Mono.scan_mode: pseudo channel cut
# Mono.scan_type: step
# Mono.direction: forward in energy
# Sample.name: NbO2
# Sample.prep: powder on tape
# Sample.x: 117.785 mm
# Sample.y: 114.695 mm
# Sample.SDD_position: 205.000 mm
# Scan.experimenters: Bruce Ravel
# Scan.edge_energy: 18985.6
# Scan.start_time: 2023-06-23T20:07:41
# Scan.end_time: 2023-06-23T20:15:08
# Scan.transient_id: 84996
# Scan.uid: 821c02aa-c903-4a0c-b8db-6ca8157c4395
# Scan.plot_hint: ln(I0/It)  --  ln($5/$6)
# Column.1: energy eV
# Column.2: requested_energy eV
# Column.3: measurement_time seconds
# Column.4: xmu
# Column.5: I0 nA
# Column.6: It nA
# Column.7: Ir nA
# ///////////
# BMM standards collection
# -----------
# energy  requested_energy  measurement_time  xmu  I0  It  Ir
  18785.634  18785.600  0.500  -0.471172  9.992523  16.0067  13.8522
  18815.668  18815.600  0.500  -0.471909  9.934746  15.9259  13.7921
  18845.720  18845.600  0.500  -0.472642  9.848866  15.7998  13.689
  18875.713  18875.600  0.500  -0.473382  9.771379  15.6871  13.5964
  18905.677  18905.600  0.500  -0.473889  9.693927  15.5707  13.4958
  18935.768  18935.600  0.500  -0.474046  9.618847  15.4525  13.3855
  18957.480  18957.600  0.500  -0.473001  9.549054  15.3244  13.2501
  18963.445  18963.600  0.500  -0.472288  9.535754  15.2921  13.203
  18969.476  18969.600  0.500  -0.471419  9.516143  15.2474  13.1397
  18975.528  18975.600  0.500  -0.469343  9.508340  15.2033  13.0497
  18976.381  18976.500  0.500  -0.469245  9.502037  15.1917  13.0262
  18977.266  18977.400  0.500  -0.468684  9.487518  15.16  12.9862
  18978.231  18978.300  0.500  -0.468316  9.472027  15.1297  12.9413
  18979.116  18979.200  0.500  -0.467677  9.451031  15.0865  12.8857
  18980.049  18980.100  0.500  -0.467312  9.449474  15.0785  12.8502
  18980.935  18981.000  0.500  -0.466833  9.438658  15.054  12.8028
  18981.836  18981.900  0.500  -0.466023  9.444090  15.0505  12.759
  18982.737  18982.800  0.500  -0.465407  9.450360  15.0512  12.703
  18983.671  18983.700  0.500  -0.463933  9.468352  15.0577  12.6385
  18984.572  18984.600  0.500  -0.462868  9.467458  15.0402  12.5171
  18985.506  18985.500  0.500  -0.461185  9.466193  15.0129  12.3455
  18986.360  18986.400  0.500  -0.459532  9.465556  14.9871  12.1441
  18987.262  18987.300  0.500  -0.457152  9.461936  14.9458  11.8848
  18988.133  18988.200  0.500  -0.453803  9.467332  14.9043  11.6411
  18989.051  18989.100  0.500  -0.449417  9.462200  14.831  11.3941
  18990.000  18990.000  0.500  -0.443920  9.458636  14.7442  11.1736
  18990.855  18990.900  0.500  -0.437623  9.462579  14.6577  10.9983
  18991.773  18991.800  0.500  -0.430703  9.459352  14.5517  10.8219
  18992.644  18992.700  0.500  -0.423508  9.463967  14.4544  10.6551
  18993.547  18993.600  0.500  -0.416173  9.463482  14.348  10.4688
  18994.481  18994.500  0.500  -0.408084  9.472045  14.2453  10.2645
  18995.368  18995.400  0.500  -0.400534  9.470547  14.1359  10.0573
  18996.287  18996.300  0.500  -0.391196  9.454995  13.9816  9.801626
  18997.174  18997.200  0.500  -0.381465  9.498141  13.9093  9.598150
  18998.092  18998.100  0.500  -0.369713  9.498450  13.7473  9.320542
  18999.011  18999.000  0.500  -0.355190  9.490448  13.5377  8.997873
  18999.867  18999.900  0.500  -0.340327  9.493030  13.3416  8.703450
  19000.802  19000.800  0.500  -0.321676  9.491022  13.0923  8.371256
  19001.705  19001.700  0.500  -0.302143  9.489719  12.8373  8.072474
  19002.609  19002.600  0.500  -0.281503  9.482973  12.5661  7.795391
  19003.528  19003.500  0.500  -0.259562  9.492930  12.3063  7.571090
  19004.416  19004.400  0.500  -0.239546  9.478146  12.0436  7.384839
  19005.319  19005.300  0.500  -0.218992  9.477116  11.7973  7.241751
  19006.191  19006.200  0.500  -0.201110  9.478633  11.5901  7.147580
  19007.095  19007.100  0.500  -0.184304  9.474165  11.3916  7.065664
  19008.015  19008.000  0.500  -0.170615  9.468292  11.2297  6.998634
  19008.903  19008.900  0.500  -0.158726  9.467736  11.0963  6.937767
  19009.823  19009.800  0.500  -0.147200  9.463732  10.9645  6.864000
  19010.585  19010.600  0.500  -0.139658  9.465577  10.8843  6.809416
  19013.615  19013.610  0.500  -0.128942  9.448319  10.7486  6.681891
  19016.789  19016.800  0.500  -0.139248  9.443024  10.8539  6.736465
  19020.171  19020.160  0.500  -0.136531  9.435098  10.8154  6.690387
  19023.761  19023.680  0.500  -0.133900  9.424082  10.7743  6.593472
  19027.431  19027.380  0.500  -0.153596  9.415682  10.9789  6.645187
  19031.309  19031.250  0.500  -0.182530  9.401986  11.2847  6.833728
  19035.317  19035.300  0.500  -0.201788  9.391990  11.4919  7.090029
  19039.517  19039.510  0.500  -0.208822  9.382852  11.5618  7.211804
  19043.893  19043.890  0.500  -0.212863  9.362197  11.5831  7.212740
  19048.479  19048.450  0.500  -0.217713  9.349940  11.6241  7.218331
  19053.243  19053.180  0.500  -0.220093  9.328047  11.6245  7.239846
  19058.073  19058.080  0.500  -0.213662  9.334973  11.5586  7.222292
  19063.176  19063.150  0.500  -0.201552  9.318625  11.3995  7.082967
  19068.457  19068.390  0.500  -0.190791  9.301102  11.2563  6.924404
  19073.870  19073.810  0.500  -0.181816  9.289570  11.1418  6.891411
  19079.429  19079.390  0.500  -0.182055  9.273747  11.1255  6.954807
  19085.151  19085.150  0.500  -0.186957  9.259316  11.1628  6.981712
  19091.149  19091.080  0.500  -0.190746  9.244792  11.1876  6.996772
  19097.231  19097.180  0.500  -0.195544  9.224172  11.2163  7.003984
  19103.460  19103.450  0.500  -0.200632  9.214834  11.2621  6.996230
  19109.935  19109.890  0.500  -0.203936  9.196177  11.2765  7.001230
  19116.542  19116.500  0.500  -0.206766  9.172525  11.2794  7.053091
  19123.298  19123.290  0.500  -0.209099  9.164396  11.2957  7.121369
  19130.251  19130.250  0.500  -0.210410  9.145093  11.2867  7.137124
  19137.435  19137.370  0.500  -0.210435  9.124946  11.2621  7.115419
  19144.721  19144.670  0.500  -0.209060  9.111377  11.2299  7.075952
  19152.205  19152.150  0.500  -0.208240  9.086969  11.1907  7.047695
  19159.857  19159.790  0.500  -0.206527  9.070175  11.1509  6.985215
  19167.612  19167.600  0.500  -0.205450  9.051548  11.116  6.927436
  19175.631  19175.590  0.500  -0.206737  9.026733  11.0998  6.974506
  19183.770  19183.750  0.500  -0.209604  8.996463  11.0943  7.076037
  19192.142  19192.070  0.500  -0.211864  8.990076  11.1115  7.107781
  19200.635  19200.570  0.500  -0.214125  8.966111  11.107  7.092103
  19209.281  19209.250  0.500  -0.215601  8.947042  11.0998  7.061388
  19218.130  19218.090  0.500  -0.216745  8.922598  11.0821  7.007144
  19227.116  19227.100  0.500  -0.217173  8.899369  11.058  6.971048
  19236.355  19236.290  0.500  -0.218718  8.877772  11.0482  6.967898
  19245.652  19245.650  0.500  -0.218039  8.854077  11.0112  6.978412
  19255.201  19255.170  0.500  -0.217086  8.834917  10.977  7.011345
  19264.907  19264.870  0.500  -0.217034  8.810112  10.9456  7.022905
  19274.819  19274.750  0.500  -0.217369  8.787409  10.921  6.999390
  19284.838  19284.790  0.500  -0.217632  8.765631  10.8968  6.952867
  19295.016  19295.000  0.500  -0.219514  8.738187  10.8832  6.924580
  19305.400  19305.390  0.500  -0.221659  8.717330  10.8805  6.921543
  19316.009  19315.950  0.500  -0.223709  8.699297  10.8803  6.936529
  19326.744  19326.680  0.500  -0.224119  8.656602  10.8313  6.922191
  19337.622  19337.580  0.500  -0.223301  8.648798  10.8127  6.937993
  19348.726  19348.650  0.500  -0.223822  8.620280  10.7827  6.929212
  19359.926  19359.890  0.500  -0.224909  8.597544  10.7659  6.924157
  19371.369  19371.310  0.500  -0.225487  8.563589  10.7296  6.893189
  19382.941  19382.890  0.500  -0.227050  8.535292  10.7109  6.885670
  19394.660  19394.650  0.500  -0.228901  8.519411  10.7108  6.882889
  19406.657  19406.580  0.500  -0.229650  8.474900  10.6628  6.850875
  19418.718  19418.680  0.500  -0.229944  8.450426  10.6351  6.843278
  19430.978  19430.950  0.500  -0.230342  8.415325  10.5951  6.834008
  19443.418  19443.390  0.500  -0.230652  8.390927  10.5677  6.828013
  19456.008  19456.010  0.500  -0.231320  8.356928  10.5319  6.806900
  19468.797  19468.790  0.500  -0.232246  8.229842  10.3814  6.718277
  19481.820  19481.750  0.500  -0.233536  8.289553  10.4702  6.777987
  19494.927  19494.880  0.500  -0.235021  8.263881  10.4533  6.769893
  19508.202  19508.180  0.500  -0.235829  8.224236  10.4115  6.747712
  19521.746  19521.650  0.500  -0.237223  8.195788  10.39  6.731731
  19535.292  19535.300  0.500  -0.237323  8.162182  10.3484  6.711816
  19549.176  19549.110  0.500  -0.238159  8.128882  10.3148  6.705942
  19563.164  19563.100  0.500  -0.238698  8.090122  10.2712  6.689076
  19577.307  19577.260  0.500  -0.239977  8.058403  10.244  6.678531
  19591.673  19591.590  0.500  -0.241041  8.018108  10.2036  6.654207
  19606.178  19606.090  0.500  -0.242262  7.946454  10.1248  6.606229
  19620.890  19620.760  0.500  -0.242609  7.959942  10.1455  6.623533
  19635.693  19635.600  0.500  -0.243751  7.897616  10.0776  6.584135
  19650.704  19650.620  0.500  -0.245203  7.877266  10.0662  6.584098
  19665.908  19665.800  0.500  -0.245941  7.829561  10.0126  6.560909
  19681.272  19681.160  0.500  -0.246820  7.802298  9.986540  6.553425
  19696.729  19696.690  0.500  -0.247892  7.771907  9.958311  6.540565
  19712.431  19712.390  0.500  -0.249096  7.730997  9.917822  6.519182
  19728.261  19728.260  0.500  -0.249570  7.691058  9.871272  6.491598
  19744.408  19744.310  0.500  -0.250638  7.568826  9.724771  6.403135
  19760.547  19760.520  0.500  -0.252138  7.619929  9.805121  6.460814
  19776.971  19776.910  0.500  -0.253275  7.574440  9.757681  6.436714
  19793.490  19793.470  0.500  -0.254367  7.534145  9.716370  6.419810
  19810.262  19810.200  0.500  -0.255103  7.497097  9.675709  6.400717
  19827.096  19827.100  0.500  -0.256141  7.453663  9.629646  6.375289
  19838.514  19838.460  0.500  -0.256847  7.426381  9.601172  6.360839