Folder: webxdiviewer/xdidata/Nd

Note: xdidata/README.md
# bmm-standards
A pretty webpage for BMM's collection of common XAFS materials

[BMM's common materials collection](./BMM-standards.html)

Plotting of the data will happen soon.

Periodic table adapted from [some guy named Daniel](https://codepen.io/gooseofmusic/pen/PjKdNQ)

[This](https://www.coderstool.com/scss-to-css) is a helpful tool for
dealing with Sassy CSS.

File: Nd-L1-Nd2TiO5.xdi
# XDI/1.0 BlueSky/1.10.0 BMM/2023-1.0-py310-tiled
# Beamline.name: BMM (06BM) -- Beamline for Materials Measurement (NIST)
# Beamline.xray_source: NSLS-II three-pole wiggler
# Beamline.collimation: paraboloid mirror, 5 nm Rh on 30 nm Pt
# Beamline.focusing: not in use
# Beamline.harmonic_rejection: flat mirror, Si stripe, pitch = 7.0 mrad relative to beam
# Beamline.software: Bluesky 1.10.0, Ophyd 1.7.0, DataBroker 2.0.0b13, Python 3.10.8, 2023-1.0-py310-tiled
# Detector.I0: 10 cm N2
# Detector.I1: 25 cm N2
# Detector.I2: 25 cm N2
# Element.symbol: Nd
# Element.edge: L1
# Element.reference: Nd
# Element.reference_material: Nd2O3
# Facility.name: NSLS-II
# Facility.energy: 3.0
# Facility.current: 400.6
# Facility.mode: top-off
# Facility.GUP: 123456
# Facility.SAF: 301027
# Facility.cycle: 2023-2
# Mono.name: Si(111)
# Mono.d_spacing: 3.13519
# Mono.encoder_resolution: 0.0000050 deg/ct
# Mono.angle_offset: 16.0754 deg
# Mono.scan_mode: pseudo channel cut
# Mono.scan_type: step
# Mono.direction: forward in energy
# Sample.name: Nd2TiO5
# Sample.prep: Powder in PEG pellet
# Sample.x: 149.848 mm
# Sample.y: 114.690 mm
# Sample.SDD_position: 205.000 mm
# Scan.experimenters: Bruce Ravel
# Scan.edge_energy: 7126.0
# Scan.start_time: 2023-05-08T20:11:33
# Scan.end_time: 2023-05-08T20:17:15
# Scan.transient_id: 75571
# Scan.uid: 4a014ff8-2d51-4141-ac58-c67da8b04c53
# Scan.plot_hint: ln(I0/It)  --  ln($5/$6)
# Column.1: energy eV
# Column.2: requested_energy eV
# Column.3: measurement_time seconds
# Column.4: xmu
# Column.5: I0 nA
# Column.6: It nA
# Column.7: Ir nA
# ///////////
# sample courtesy Martin Stennett, University of Sheffield
# -----------
# energy  requested_energy  measurement_time  xmu  I0  It  Ir
  6926.002  6926.000  0.500  1.314287  151.357  40.6644  7.857312
  6946.058  6946.000  0.500  1.300004  151.44  41.2719  8.070124
  6966.026  6966.000  0.500  1.285193  151.564  41.9221  8.288928
  6986.012  6986.000  0.500  1.270358  151.603  42.5595  8.532646
  7006.015  7006.000  0.500  1.256013  151.657  43.1899  8.756183
  7026.015  7026.000  0.500  1.241794  151.627  43.7997  8.984185
  7046.008  7046.000  0.500  1.227249  150.447  44.0957  9.164261
  7066.010  7066.000  0.500  1.213423  150.324  44.673  9.386053
  7086.016  7086.000  0.500  1.199384  150.14  45.2491  9.619725
  7098.003  7098.000  0.500  1.191169  150.08  45.6042  9.761719
  7101.999  7102.000  0.500  1.188455  150.047  45.718  9.805709
  7105.998  7106.000  0.500  1.185720  150.001  45.8293  9.848998
  7109.996  7110.000  0.500  1.183197  149.935  45.9248  9.891356
  7113.993  7114.000  0.500  1.180534  149.656  45.9617  9.916716
  7116.485  7116.500  0.500  1.178999  149.609  46.0177  9.939598
  7117.484  7117.500  0.500  1.178585  149.599  46.0336  9.947263
  7118.483  7118.500  0.500  1.177529  149.541  46.0644  9.957243
  7119.488  7119.500  0.500  1.176762  149.495  46.0856  9.965302
  7120.488  7120.500  0.500  1.176348  149.462  46.0945  9.971224
  7121.494  7121.500  0.500  1.175857  149.4  46.0981  9.973710
  7122.487  7122.500  0.500  1.175149  149.354  46.1165  9.979886
  7123.490  7123.500  0.500  1.174432  149.283  46.1276  9.985355
  7124.488  7124.500  0.500  1.174038  149.269  46.1414  9.989311
  7125.487  7125.500  0.500  1.173373  149.178  46.1439  9.991039
  7126.490  7126.500  0.500  1.172968  149.133  46.1487  9.991752
  7127.501  7127.500  0.500  1.172553  149.061  46.1455  9.986808
  7128.496  7128.500  0.500  1.172224  148.984  46.1369  9.977901
  7129.494  7129.500  0.500  1.172061  148.924  46.1261  9.962674
  7130.498  7130.500  0.500  1.171940  148.833  46.1034  9.938399
  7131.496  7131.500  0.500  1.171719  148.751  46.0881  9.914665
  7132.493  7132.500  0.500  1.171320  148.719  46.0965  9.901119
  7133.498  7133.500  0.500  1.171523  148.684  46.0764  9.883513
  7134.502  7134.500  0.500  1.171226  148.648  46.079  9.868710
  7135.501  7135.500  0.500  1.170502  148.675  46.1208  9.852337
  7136.495  7136.500  0.500  1.171079  148.635  46.0815  9.809004
  7137.499  7137.500  0.500  1.170672  148.691  46.1179  9.771646
  7138.502  7138.500  0.500  1.170923  148.637  46.0896  9.707019
  7139.498  7139.500  0.500  1.171281  148.636  46.0728  9.633922
  7140.497  7140.500  0.500  1.171248  148.615  46.0676  9.554869
  7141.503  7141.500  0.500  1.171076  148.632  46.0807  9.482199
  7142.498  7142.500  0.500  1.170870  148.614  46.0849  9.417289
  7143.499  7143.500  0.500  1.170499  148.61  46.1006  9.376642
  7144.506  7144.500  0.500  1.170008  148.541  46.1018  9.356928
  7145.508  7145.500  0.500  1.169413  148.579  46.1411  9.369894
  7146.505  7146.500  0.500  1.168946  148.578  46.1625  9.400150
  7147.503  7147.500  0.500  1.168308  148.567  46.1885  9.441448
  7148.504  7148.500  0.500  1.167593  148.547  46.2151  9.486593
  7149.506  7149.500  0.500  1.166893  148.544  46.2468  9.533831
  7150.501  7150.500  0.500  1.166376  148.55  46.2724  9.575025
  7151.998  7151.990  0.500  1.165472  148.561  46.3177  9.623694
  7154.016  7154.010  0.500  1.164074  148.518  46.3689  9.668407
  7156.135  7156.120  0.500  1.162232  148.508  46.4515  9.713507
  7158.310  7158.300  0.500  1.160127  148.465  46.5358  9.766701
  7160.567  7160.560  0.500  1.157621  148.333  46.6112  9.826752
  7162.899  7162.890  0.500  1.155525  148.387  46.726  9.892186
  7165.310  7165.300  0.500  1.153520  148.299  46.792  9.940320
  7167.787  7167.780  0.500  1.151680  148.208  46.8492  9.976262
  7170.351  7170.340  0.500  1.150231  148.166  46.9041  10.0012
  7172.993  7172.980  0.500  1.148696  148.123  46.9624  10.012
  7175.710  7175.700  0.500  1.147606  148.072  46.9973  10.0018
  7178.496  7178.490  0.500  1.145582  148.05  47.0857  10.0017
  7181.361  7181.350  0.500  1.143960  147.986  47.1418  10.0095
  7184.308  7184.290  0.500  1.142120  147.941  47.2141  10.0236
  7187.325  7187.310  0.500  1.140357  147.879  47.2778  10.0465
  7190.419  7190.410  0.500  1.138825  147.81  47.3282  10.0689
  7193.593  7193.580  0.500  1.136692  147.537  47.3416  10.0874
  7196.840  7196.830  0.500  1.134621  147.646  47.4748  10.1386
  7200.156  7200.150  0.500  1.132820  147.545  47.5278  10.1808
  7203.561  7203.550  0.500  1.130343  147.478  47.624  10.2425
  7207.040  7207.030  0.500  1.127701  147.494  47.7552  10.3175
  7210.593  7210.580  0.500  1.125400  147.834  47.9754  10.405
  7214.223  7214.210  0.500  1.122841  147.741  48.068  10.4557
  7217.925  7217.910  0.500  1.120176  147.657  48.1691  10.4992
  7221.710  7221.690  0.500  1.117936  147.56  48.2453  10.5331
  7225.567  7225.550  0.500  1.115273  147.423  48.3289  10.5632
  7229.496  7229.480  0.500  1.112726  147.551  48.4944  10.61
  7233.501  7233.490  0.500  1.110200  147.473  48.5913  10.6437
  7237.591  7237.580  0.500  1.107441  147.34  48.6816  10.687
  7241.752  7241.740  0.500  1.104895  147.307  48.7947  10.74
  7245.996  7245.980  0.500  1.102324  146.603  48.6866  10.7417
  7250.306  7250.290  0.500  1.099771  147.089  48.9728  10.8264
  7254.692  7254.680  0.500  1.097047  144.721  48.316  10.7035
  7259.158  7259.150  0.500  1.094400  146.974  49.1981  10.9247
  7263.713  7263.690  0.500  1.091327  139.292  46.7701  10.4162
  7268.322  7268.310  0.500  1.088483  147.343  49.6142  11.0705
[...]
  7287.560  7287.550  0.500  1.076414  146.963  50.0872  11.3189
  7292.556  7292.550  0.500  1.073478  146.965  50.2351  11.3812
  7297.632  7297.620  0.500  1.070492  146.831  50.3396  11.4302
  7302.776  7302.770  0.500  1.066975  146.951  50.558  11.5017
  7308.009  7308.000  0.500  1.063881  146.796  50.6613  11.556
  7313.323  7313.310  0.500  1.060696  146.726  50.7987  11.6157
  7318.700  7318.690  0.500  1.057380  146.63  50.9341  11.6803
  7324.160  7324.150  0.500  1.054597  146.547  51.0471  11.7426
  7329.690  7329.680  0.500  1.050868  146.429  51.1966  11.8142
  7335.302  7335.290  0.500  1.047941  146.347  51.318  11.8773
  7340.973  7340.970  0.500  1.044386  146.061  51.3999  11.9309
  7346.747  7346.740  0.500  1.040801  146.112  51.6026  12.0148
  7352.579  7352.570  0.500  1.037389  145.986  51.7342  12.0803
  7358.506  7358.490  0.500  1.033661  145.869  51.8861  12.1546
  7364.489  7364.480  0.500  1.029889  145.751  52.04  12.2322
  7370.566  7370.550  0.500  1.026307  145.637  52.1858  12.3084
  7376.710  7376.690  0.500  1.022472  145.501  52.3374  12.3871
  7382.928  7382.910  0.500  1.019088  145.362  52.4645  12.4549
  7389.233  7389.200  0.500  1.015212  145.218  52.6162  12.5297
  7395.587  7395.570  0.500  1.011592  145.124  52.7729  12.6034
  7402.038  7402.020  0.500  1.007849  144.967  52.9135  12.6726
  7408.583  7408.550  0.500  1.003916  144.811  53.0647  12.7499
  7415.174  7415.150  0.500  1.000121  144.675  53.2166  12.8313
  7421.837  7421.820  0.500  0.996138  144.517  53.3705  12.9139
  7428.587  7428.570  0.500  0.992609  144.346  53.4958  12.9903
  7435.428  7435.400  0.500  0.988746  144.186  53.6434  13.0727
  7442.326  7442.310  0.500  0.984619  143.902  53.7591  13.1445
  7449.308  7449.290  0.500  0.980572  143.88  53.9689  13.2413
  7456.345  7456.350  0.500  0.976492  143.698  54.121  13.3232
  7463.497  7463.480  0.500  0.972842  143.508  54.2471  13.4018
  7470.711  7470.690  0.500  0.968383  143.443  54.4649  13.5028
  7477.987  7477.980  0.500  0.964294  143.22  54.603  13.5871
  7485.332  7485.340  0.500  0.960092  142.984  54.7426  13.6711
  7492.774  7492.780  0.500  0.955953  142.781  54.8917  13.7583
  7500.274  7500.290  0.500  0.951722  142.558  55.038  13.8418
  7507.888  7507.880  0.500  0.947470  142.322  55.1811  13.9267
  7515.540  7515.550  0.500  0.943355  142.109  55.3258  14.0165
  7523.273  7523.290  0.500  0.939042  141.84  55.4598  14.1005
  7531.151  7531.110  0.500  0.934798  141.608  55.6047  14.1893
  7538.995  7539.010  0.500  0.930422  141.341  55.7429  14.2779
  7546.992  7546.980  0.500  0.926363  141.074  55.8642  14.3667
  7555.035  7555.030  0.500  0.921852  140.852  56.0283  14.4649
  7563.170  7563.150  0.500  0.917589  140.561  56.1513  14.5512
  7571.369  7571.350  0.500  0.912985  140.324  56.3155  14.6466
  7579.648  7579.630  0.500  0.908751  140.02  56.432  14.7335
  7587.989  7587.980  0.500  0.904398  139.648  56.5277  14.8159
  7596.426  7596.410  0.500  0.899897  139.284  56.6343  14.9034
  7604.924  7604.910  0.500  0.895796  138.5  56.5471  14.939
  7613.321  7613.490  0.500  0.891892  138.176  56.6353  15.0058
  7622.176  7622.150  0.500  0.886157  138.216  56.9778  15.172
  7630.886  7630.890  0.500  0.881770  138.105  57.1825  15.2881
  7639.733  7639.700  0.500  0.877076  137.753  57.3049  15.3831
  7648.559  7648.580  0.500  0.872375  137.466  57.4549  15.4828
  7657.531  7657.540  0.500  0.868000  137.173  57.5838  15.5801
  7666.567  7666.580  0.500  0.863373  136.808  57.6971  15.6724
  7671.114  7671.130  0.500  0.861176  136.662  57.7623  15.7226

File: Nd-L1-Nd2Zr2O7.xdi
# XDI/1.0 BlueSky/1.10.0 BMM/2023-1.0-py310-tiled
# Beamline.name: BMM (06BM) -- Beamline for Materials Measurement (NIST)
# Beamline.xray_source: NSLS-II three-pole wiggler
# Beamline.collimation: paraboloid mirror, 5 nm Rh on 30 nm Pt
# Beamline.focusing: not in use
# Beamline.harmonic_rejection: flat mirror, Si stripe, pitch = 7.0 mrad relative to beam
# Beamline.software: Bluesky 1.10.0, Ophyd 1.7.0, DataBroker 2.0.0b13, Python 3.10.8, 2023-1.0-py310-tiled
# Detector.I0: 10 cm N2
# Detector.I1: 25 cm N2
# Detector.I2: 25 cm N2
# Element.symbol: Nd
# Element.edge: L1
# Element.reference: Nd
# Element.reference_material: Nd2O3
# Facility.name: NSLS-II
# Facility.energy: 3.0
# Facility.current: 400.7
# Facility.mode: top-off
# Facility.GUP: 123456
# Facility.SAF: 301027
# Facility.cycle: 2023-2
# Mono.name: Si(111)
# Mono.d_spacing: 3.13519
# Mono.encoder_resolution: 0.0000050 deg/ct
# Mono.angle_offset: 16.0754 deg
# Mono.scan_mode: pseudo channel cut
# Mono.scan_type: step
# Mono.direction: forward in energy
# Sample.name: Nd2Zr2O7
# Sample.prep: Powder in PEG pellet
# Sample.x: 149.848 mm
# Sample.y: 114.690 mm
# Sample.SDD_position: 205.000 mm
# Scan.experimenters: Bruce Ravel
# Scan.edge_energy: 7126.0
# Scan.start_time: 2023-05-08T20:17:57
# Scan.end_time: 2023-05-08T20:23:47
# Scan.transient_id: 75576
# Scan.uid: 004f7de9-96d1-459a-8691-6101d5db2955
# Scan.plot_hint: ln(I0/It)  --  ln($5/$6)
# Column.1: energy eV
# Column.2: requested_energy eV
# Column.3: measurement_time seconds
# Column.4: xmu
# Column.5: I0 nA
# Column.6: It nA
# Column.7: Ir nA
# ///////////
# sample courtesy Martin Stennett, University of Sheffield
# -----------
# energy  requested_energy  measurement_time  xmu  I0  It  Ir
  6926.012  6926.000  0.500  2.005286  150.492  20.2595  3.927851
  6946.015  6946.000  0.500  1.984687  150.572  20.6922  4.059974
  6966.012  6966.000  0.500  1.965861  150.671  21.0992  4.185448
  6986.012  6986.000  0.500  1.946221  150.67  21.5176  4.327773
  7006.023  7006.000  0.500  1.926743  150.668  21.9405  4.463029
  7026.015  7026.000  0.500  1.908175  150.593  22.3406  4.597469
  7046.014  7046.000  0.500  1.888874  150.497  22.7615  4.739653
  7066.015  7066.000  0.500  1.870605  150.356  23.1595  4.875353
  7085.980  7086.000  0.500  1.852623  150.096  23.5388  5.013847
  7097.984  7098.000  0.500  1.841522  150.006  23.7873  5.102098
  7101.988  7102.000  0.500  1.837974  149.957  23.8642  5.129108
  7105.987  7106.000  0.500  1.834742  149.926  23.9363  5.154995
  7109.988  7110.000  0.500  1.831522  149.841  24  5.178774
  7113.989  7114.000  0.500  1.828508  149.589  24.032  5.195787
  7116.481  7116.500  0.500  1.827003  149.553  24.0623  5.207079
  7117.479  7117.500  0.500  1.826148  149.446  24.0658  5.211284
  7118.487  7118.500  0.500  1.825236  149.404  24.0808  5.216600
  7119.480  7119.500  0.500  1.824827  149.349  24.0819  5.217149
  7120.488  7120.500  0.500  1.824041  149.302  24.0932  5.222107
  7121.485  7121.500  0.500  1.823818  149.25  24.0902  5.222773
  7122.487  7122.500  0.500  1.823124  149.205  24.0996  5.226735
  7123.488  7123.500  0.500  1.822653  149.143  24.101  5.227558
  7124.486  7124.500  0.500  1.822396  149.09  24.0987  5.227508
  7125.491  7125.500  0.500  1.822268  149.033  24.0924  5.226477
  7126.497  7126.500  0.500  1.822223  148.961  24.0819  5.223954
  7127.494  7127.500  0.500  1.823257  148.889  24.0455  5.214203
  7128.487  7128.500  0.500  1.824406  148.827  24.0077  5.202540
  7129.496  7129.500  0.500  1.826093  148.734  23.9524  5.183626
  7130.500  7130.500  0.500  1.829081  148.646  23.8668  5.154684
  7131.494  7131.500  0.500  1.832146  148.561  23.7802  5.125931
  7132.495  7132.500  0.500  1.835249  148.522  23.7002  5.100798
  7133.498  7133.500  0.500  1.838128  148.51  23.6301  5.079923
  7134.495  7134.500  0.500  1.840857  148.517  23.5669  5.057328
  7135.497  7135.500  0.500  1.844250  148.512  23.4862  5.026098
  7136.503  7136.500  0.500  1.847881  148.42  23.3866  4.987637
  7137.499  7137.500  0.500  1.852040  148.521  23.3054  4.947831
  7138.497  7138.500  0.500  1.857094  148.473  23.1804  4.891435
  7139.502  7139.500  0.500  1.862840  148.467  23.0467  4.827830
  7140.510  7140.500  0.500  1.869316  148.455  22.896  4.757823
  7141.503  7141.500  0.500  1.874753  148.451  22.7713  4.694231
  7142.500  7142.500  0.500  1.879510  148.441  22.6618  4.638966
  7143.506  7143.500  0.500  1.882903  148.458  22.5875  4.601400
  7144.506  7144.500  0.500  1.884056  148.462  22.5622  4.586436
  7145.498  7145.500  0.500  1.883065  148.438  22.5808  4.594471
  7146.496  7146.500  0.500  1.880976  148.413  22.6243  4.614903
  7147.499  7147.500  0.500  1.878177  148.41  22.6872  4.645816
  7148.504  7148.500  0.500  1.875393  148.402  22.7492  4.678501
  7149.499  7149.500  0.500  1.872179  148.411  22.8239  4.713022
  7150.497  7150.500  0.500  1.868831  148.375  22.8948  4.745284
  7151.996  7151.990  0.500  1.864158  148.358  22.9995  4.787815
  7154.023  7154.010  0.500  1.860762  148.334  23.074  4.820745
  7156.129  7156.120  0.500  1.858945  148.339  23.1168  4.843106
  7158.313  7158.300  0.500  1.856920  148.334  23.1627  4.870206
  7160.569  7160.560  0.500  1.851976  148.283  23.2695  4.913811
  7162.906  7162.890  0.500  1.845890  148.237  23.4044  4.963919
  7165.307  7165.300  0.500  1.839616  148.126  23.5341  5.008453
  7167.787  7167.780  0.500  1.834785  148.063  23.638  5.041714
  7170.353  7170.340  0.500  1.831640  148.03  23.7071  5.063422
  7172.985  7172.980  0.500  1.830710  147.964  23.7186  5.064113
  7175.703  7175.700  0.500  1.831678  147.925  23.6894  5.050437
  7178.500  7178.490  0.500  1.833062  147.883  23.6499  5.033450
  7181.359  7181.350  0.500  1.834017  147.854  23.6226  5.024407
  7184.303  7184.290  0.500  1.831893  147.798  23.6639  5.032503
  7187.312  7187.310  0.500  1.828014  147.761  23.7499  5.055724
  7190.417  7190.410  0.500  1.824299  147.704  23.8292  5.078891
  7193.593  7193.580  0.500  1.821961  147.403  23.8363  5.087662
  7196.842  7196.830  0.500  1.819040  147.482  23.9189  5.117354
  7200.164  7200.150  0.500  1.815465  147.408  23.9924  5.147862
  7203.561  7203.550  0.500  1.811669  147.338  24.0723  5.186493
  7207.042  7207.030  0.500  1.808114  147.264  24.1459  5.226283
  7210.600  7210.580  0.500  1.804580  147.151  24.2127  5.260351
  7214.218  7214.210  0.500  1.801149  147.093  24.2863  5.292010
  7217.918  7217.910  0.500  1.797434  146.979  24.358  5.318102
  7221.702  7221.690  0.500  1.793840  147.456  24.525  5.363536
  7225.560  7225.550  0.500  1.789983  147.326  24.598  5.386404
  7229.501  7229.480  0.500  1.786285  147.486  24.7159  5.416845
  7233.508  7233.490  0.500  1.782935  147.364  24.7783  5.437784
  7237.600  7237.580  0.500  1.778911  147.279  24.8639  5.467710
  7241.754  7241.740  0.500  1.775335  147.217  24.9424  5.499676
  7245.992  7245.980  0.500  1.772218  146.503  24.8989  5.502613
  7250.301  7250.290  0.500  1.768518  146.986  25.0737  5.553059
  7254.692  7254.680  0.500  1.764895  144.614  24.7586  5.493920
  7259.167  7259.150  0.500  1.761306  146.853  25.2323  5.613941
  7263.706  7263.690  0.500  1.757535  139.348  24.0332  5.361882
  7268.320  7268.310  0.500  1.753923  147.24  25.4862  5.697549
[...]
  7292.561  7292.550  0.500  1.732265  146.86  25.9771  5.895978
  7297.639  7297.620  0.500  1.728037  146.744  26.0665  5.929368
  7302.783  7302.770  0.500  1.723949  146.868  26.1954  5.971424
  7308.016  7308.000  0.500  1.719826  146.678  26.2697  6.002473
  7313.321  7313.310  0.500  1.715191  146.643  26.3853  6.043084
  7318.706  7318.690  0.500  1.710299  146.541  26.4963  6.086866
  7324.160  7324.150  0.500  1.705347  146.431  26.6078  6.133398
  7329.690  7329.680  0.500  1.700839  146.341  26.7116  6.174740
  7335.306  7335.290  0.500  1.696045  146.197  26.8136  6.217119
  7340.987  7340.970  0.500  1.691050  145.952  26.9027  6.256186
  7346.745  7346.740  0.500  1.686448  145.964  27.029  6.304136
  7352.584  7352.570  0.500  1.682170  145.832  27.1204  6.345611
  7358.497  7358.490  0.500  1.677483  145.756  27.2335  6.391856
  7364.489  7364.480  0.500  1.672629  145.593  27.3356  6.437291
  7370.561  7370.550  0.500  1.667321  145.49  27.4616  6.490004
  7376.696  7376.690  0.500  1.662451  145.35  27.5691  6.537477
  7382.916  7382.910  0.500  1.657038  145.234  27.6965  6.587842
  7389.210  7389.200  0.500  1.651952  145.114  27.8148  6.634496
  7395.582  7395.570  0.500  1.646448  145.004  27.947  6.686189
  7402.038  7402.020  0.500  1.641735  144.829  28.0453  6.730440
  7408.559  7408.550  0.500  1.636346  144.704  28.1724  6.781435
  7415.160  7415.150  0.500  1.630663  144.549  28.3027  6.837043
  7421.832  7421.820  0.500  1.625350  144.408  28.4257  6.891966
  7428.578  7428.570  0.500  1.619750  144.219  28.5479  6.946003
  7435.418  7435.400  0.500  1.614344  144.049  28.6688  6.999693
  7442.331  7442.310  0.500  1.608881  143.776  28.7712  7.049005
  7449.304  7449.290  0.500  1.603572  143.711  28.9113  7.107957
  7456.364  7456.350  0.500  1.598125  143.551  29.0367  7.161910
  7463.511  7463.480  0.500  1.592638  143.344  29.1545  7.217220
  7470.706  7470.690  0.500  1.586675  143.298  29.3194  7.281909
  7477.998  7477.980  0.500  1.581043  143.046  29.4332  7.338331
  7485.358  7485.340  0.500  1.575050  142.817  29.5626  7.397704
  7492.802  7492.780  0.500  1.569357  142.633  29.6933  7.455552
  7500.303  7500.290  0.500  1.563489  142.432  29.826  7.516157
  7507.893  7507.880  0.500  1.557748  142.212  29.9513  7.574805
  7515.567  7515.550  0.500  1.551665  141.935  30.0752  7.632900
  7523.314  7523.290  0.500  1.545775  141.722  30.2075  7.695654
  7531.129  7531.110  0.500  1.540469  141.465  30.3132  7.752124
  7539.031  7539.010  0.500  1.534453  141.203  30.4397  7.811908
  7546.965  7546.980  0.500  1.527962  140.953  30.5836  7.881158
  7555.026  7555.030  0.500  1.521736  140.694  30.7182  7.945788
  7563.172  7563.150  0.500  1.515562  140.434  30.8511  8.011515
  7571.384  7571.350  0.500  1.509396  140.144  30.9779  8.073485
  7579.650  7579.630  0.500  1.503341  139.812  31.0922  8.134972
  7587.957  7587.980  0.500  1.497132  139.488  31.2134  8.199354
  7596.392  7596.410  0.500  1.491318  139.126  31.3139  8.257839
  7604.934  7604.910  0.500  1.485311  138.293  31.3139  8.290058
  7613.494  7613.490  0.500  1.478440  137.945  31.4505  8.359663
  7622.169  7622.150  0.500  1.472044  137.99  31.6625  8.449984
  7630.908  7630.890  0.500  1.465607  137.839  31.8322  8.528884
  7639.713  7639.700  0.500  1.459590  137.544  31.9559  8.597185
  7648.596  7648.580  0.500  1.452943  137.216  32.0922  8.666844
  7657.558  7657.540  0.500  1.446667  136.84  32.2059  8.733433
  7666.593  7666.580  0.500  1.440206  136.512  32.3367  8.802853
  7671.142  7671.130  0.500  1.437131  136.347  32.3972  8.838390