Folder: webxdiviewer/xdidata/Nd (part 3)

File: Nd-L3-Nd2TiO5.xdi
# XDI/1.0 BlueSky/1.10.0 BMM/2023-1.0-py310-tiled
# Beamline.name: BMM (06BM) -- Beamline for Materials Measurement (NIST)
# Beamline.xray_source: NSLS-II three-pole wiggler
# Beamline.collimation: paraboloid mirror, 5 nm Rh on 30 nm Pt
# Beamline.focusing: not in use
# Beamline.harmonic_rejection: flat mirror, Si stripe, pitch = 7.0 mrad relative to beam
# Beamline.software: Bluesky 1.10.0, Ophyd 1.7.0, DataBroker 2.0.0b13, Python 3.10.8, 2023-1.0-py310-tiled
# Detector.I0: 10 cm N2
# Detector.I1: 25 cm N2
# Detector.I2: 25 cm N2
# Element.symbol: Nd
# Element.edge: L3
# Element.reference: Nd
# Element.reference_material: Nd2O3
# Facility.name: NSLS-II
# Facility.energy: 3.0
# Facility.current: 400.9
# Facility.mode: top-off
# Facility.GUP: 123456
# Facility.SAF: 301027
# Facility.cycle: 2023-2
# Mono.name: Si(111)
# Mono.d_spacing: 3.13519
# Mono.encoder_resolution: 0.0000050 deg/ct
# Mono.angle_offset: 16.0754 deg
# Mono.scan_mode: pseudo channel cut
# Mono.scan_type: step
# Mono.direction: forward in energy
# Sample.name: Nd2TiO5
# Sample.prep: Powder in PEG pellet
# Sample.x: 149.848 mm
# Sample.y: 114.690 mm
# Sample.SDD_position: 205.000 mm
# Scan.experimenters: Bruce Ravel
# Scan.edge_energy: 6207.9
# Scan.start_time: 2023-05-08T16:36:55
# Scan.end_time: 2023-05-08T16:42:35
# Scan.transient_id: 75407
# Scan.uid: d5538fbf-234c-419e-ba19-43b0d85200ab
# Scan.plot_hint: ln(I0/It)  --  ln($5/$6)
# Column.1: energy eV
# Column.2: requested_energy eV
# Column.3: measurement_time seconds
# Column.4: xmu
# Column.5: I0 nA
# Column.6: It nA
# Column.7: Ir nA
# ///////////
# sample courtesy Martin Stennett, University of Sheffield
# -----------
# energy  requested_energy  measurement_time  xmu  I0  It  Ir
  6007.902  6007.900  0.500  2.147187  148.33  17.3267  2.404252
  6027.914  6027.900  0.500  2.121636  148.756  17.8263  2.521318
  6047.914  6047.900  0.500  2.095660  149.197  18.3496  2.645141
  6067.912  6067.900  0.500  2.069463  149.155  18.8314  2.765620
  6087.913  6087.900  0.500  2.043649  149.584  19.3794  2.898817
  6107.891  6107.900  0.500  2.017906  149.979  19.9373  3.038952
  6127.893  6127.900  0.500  1.993086  150.416  20.4978  3.180348
  6147.899  6147.900  0.500  1.968616  150.821  21.0622  3.326010
  6167.894  6167.900  0.500  1.944550  151.032  21.6054  3.467652
  6179.899  6179.900  0.500  1.930770  151.312  21.9458  3.554330
  6183.897  6183.900  0.500  1.926326  151.394  22.0554  3.580542
  6187.896  6187.900  0.500  1.922094  151.418  22.1525  3.603959
  6191.896  6191.900  0.500  1.918444  151.46  22.2397  3.621416
  6195.896  6195.900  0.500  1.915220  151.509  22.3187  3.631851
  6198.388  6198.400  0.500  1.914222  151.511  22.3413  3.628481
  6199.384  6199.400  0.500  1.913782  151.517  22.352  3.624323
  6200.386  6200.400  0.500  1.913892  151.535  22.3522  3.616212
  6201.390  6201.400  0.500  1.914113  151.53  22.3465  3.605644
  6202.387  6202.400  0.500  1.914562  151.524  22.3356  3.588880
  6203.387  6203.400  0.500  1.916874  151.537  22.2859  3.558866
  6204.390  6204.400  0.500  1.918628  151.556  22.2497  3.523147
  6205.390  6205.400  0.500  1.921497  151.559  22.1864  3.476320
  6206.390  6206.400  0.500  1.925530  151.572  22.099  3.420646
  6207.394  6207.400  0.500  1.930010  151.578  22.001  3.352756
  6208.391  6208.400  0.500  1.936667  151.581  21.8555  3.264906
  6209.397  6209.400  0.500  1.947280  151.588  21.6258  3.127259
  6210.394  6210.400  0.500  1.962472  151.586  21.2994  2.903739
  6211.393  6211.400  0.500  1.977825  151.61  20.9782  2.584499
  6212.397  6212.400  0.500  1.990201  151.598  20.7186  2.162507
  6213.397  6213.400  0.500  1.996154  151.6  20.5958  1.773315
  6214.397  6214.400  0.500  1.999248  151.598  20.5319  1.582564
  6215.398  6215.400  0.500  1.999111  151.594  20.5343  1.627742
  6216.397  6216.400  0.500  1.994858  151.604  20.6232  1.832845
  6217.403  6217.400  0.500  1.987282  151.612  20.7811  2.084922
  6218.401  6218.400  0.500  1.978176  151.61  20.9709  2.320584
  6219.399  6219.400  0.500  1.969582  151.628  21.1544  2.511335
  6220.403  6220.400  0.500  1.961401  151.629  21.3283  2.662404
  6221.400  6221.400  0.500  1.954757  151.628  21.4704  2.772575
  6222.402  6222.400  0.500  1.949559  151.64  21.5839  2.842790
  6223.405  6223.400  0.500  1.946047  151.643  21.6604  2.879751
  6224.406  6224.400  0.500  1.943119  151.651  21.725  2.896497
  6225.402  6225.400  0.500  1.941112  151.644  21.7676  2.905581
  6226.406  6226.400  0.500  1.939556  151.663  21.8042  2.916110
  6227.404  6227.400  0.500  1.938221  151.654  21.8321  2.931172
  6228.396  6228.400  0.500  1.937862  151.679  21.8435  2.949289
  6229.403  6229.400  0.500  1.936800  151.67  21.8655  2.970289
  6230.400  6230.400  0.500  1.935641  151.677  21.8919  2.986946
  6231.398  6231.400  0.500  1.935429  151.698  21.8994  2.994241
  6232.402  6232.400  0.500  1.934454  151.693  21.9202  2.996902
  6233.895  6233.890  0.500  1.932427  151.694  21.9648  2.985375
  6235.922  6235.910  0.500  1.929066  151.692  22.0384  2.949510
  6238.041  6238.020  0.500  1.926920  151.711  22.0885  2.908553
  6240.192  6240.200  0.500  1.925997  151.717  22.1098  2.867333
  6242.455  6242.460  0.500  1.926395  151.726  22.1024  2.827405
  6244.790  6244.790  0.500  1.927845  151.73  22.0708  2.798882
  6247.201  6247.200  0.500  1.928035  151.715  22.0645  2.798274
  6249.687  6249.680  0.500  1.925779  151.744  22.1185  2.827045
  6252.247  6252.240  0.500  1.921455  151.758  22.2164  2.875565
  6254.889  6254.880  0.500  1.915884  151.727  22.336  2.934668
  6257.606  6257.600  0.500  1.909908  151.74  22.4717  3.001761
  6260.393  6260.390  0.500  1.905444  151.745  22.573  3.055003
  6263.255  6263.250  0.500  1.901561  151.747  22.6612  3.090120
  6266.194  6266.190  0.500  1.897981  151.777  22.7469  3.110613
  6269.216  6269.210  0.500  1.894439  151.804  22.8317  3.128083
  6272.319  6272.310  0.500  1.891091  151.798  22.9075  3.140481
  6275.489  6275.480  0.500  1.888190  151.804  22.9749  3.143373
  6278.737  6278.730  0.500  1.885195  151.825  23.047  3.142282
  6282.053  6282.050  0.500  1.882292  151.827  23.1143  3.139668
  6285.457  6285.450  0.500  1.878692  151.8  23.1935  3.134818
  6288.937  6288.930  0.500  1.874831  151.796  23.2826  3.137864
  6292.490  6292.480  0.500  1.872085  151.786  23.3451  3.154128
  6296.119  6296.110  0.500  1.868919  151.791  23.4199  3.178001
  6299.818  6299.810  0.500  1.864723  152.315  23.5995  3.221286
  6303.599  6303.590  0.500  1.860074  152.285  23.7048  3.263733
  6307.457  6307.450  0.500  1.855605  152.284  23.8109  3.303779
  6311.389  6311.380  0.500  1.851190  152.262  23.9128  3.342923
  6315.397  6315.390  0.500  1.846797  152.281  24.0211  3.377192
  6319.489  6319.480  0.500  1.842132  152.247  24.128  3.399597
  6323.647  6323.640  0.500  1.837282  152.214  24.24  3.421981
  6327.889  6327.880  0.500  1.832777  152.21  24.3488  3.443746
  6332.200  6332.190  0.500  1.827423  152.198  24.4777  3.471143
  6336.588  6336.580  0.500  1.823307  152.164  24.573  3.492448
  6341.059  6341.050  0.500  1.818194  152.134  24.6942  3.517155
  6345.598  6345.590  0.500  1.813751  152.116  24.8012  3.540041
  6350.219  6350.210  0.500  1.809493  152.084  24.9018  3.555552
  6354.909  6354.900  0.500  1.804492  152.052  25.0213  3.576291
  6359.679  6359.670  0.500  1.799693  152.012  25.1351  3.606253
  6364.528  6364.520  0.500  1.794484  151.97  25.2595  3.643562
  6369.462  6369.450  0.500  1.788763  151.927  25.3971  3.688227
  6374.460  6374.450  0.500  1.783938  151.868  25.51  3.731719
  6379.529  6379.520  0.500  1.778295  151.835  25.6489  3.775308
  6384.674  6384.670  0.500  1.773273  151.79  25.7704  3.810751
  6389.906  6389.900  0.500  1.767671  151.736  25.9059  3.844228
  6395.218  6395.210  0.500  1.762345  151.686  26.0357  3.874939
  6400.599  6400.590  0.500  1.756381  151.613  26.1788  3.908448
  6406.058  6406.050  0.500  1.749997  151.514  26.3293  3.946591
  6411.587  6411.580  0.500  1.745045  151.45  26.4489  3.981785
  6417.196  6417.190  0.500  1.739311  151.383  26.5892  4.019772
  6422.872  6422.870  0.500  1.733224  151.286  26.7343  4.059819
  6428.644  6428.640  0.500  1.727448  151.159  26.8667  4.097521
  6434.478  6434.470  0.500  1.722232  150.991  26.977  4.130826
  6440.399  6440.390  0.500  1.716372  150.916  27.1222  4.168152
  6446.384  6446.380  0.500  1.709967  150.81  27.2773  4.207440
  6452.454  6452.450  0.500  1.703891  150.643  27.413  4.248716
  6458.596  6458.590  0.500  1.697361  148.14  27.1343  4.229456
  6464.815  6464.810  0.500  1.691206  147.818  27.2424  4.275686
  6471.104  6471.100  0.500  1.685156  150.233  27.8555  4.396507
  6477.477  6477.470  0.500  1.679542  150.023  27.9733  4.437380
  6483.936  6483.920  0.500  1.673280  149.933  28.132  4.483253
  6490.460  6490.450  0.500  1.666906  149.815  28.2896  4.526140
  6497.061  6497.050  0.500  1.660493  149.653  28.4409  4.568534
  6503.727  6503.720  0.500  1.653718  149.504  28.6056  4.617058
  6510.480  6510.470  0.500  1.646901  149.314  28.7647  4.667697
  6517.310  6517.300  0.500  1.639848  149.16  28.9384  4.722092
  6524.218  6524.210  0.500  1.633552  148.972  29.0845  4.772421
  6531.199  6531.190  0.500  1.626920  148.778  29.24  4.822888
  6538.262  6538.250  0.500  1.620175  148.571  29.3968  4.873365
  6545.382  6545.380  0.500  1.613346  148.309  29.5462  4.923128
  6552.599  6552.590  0.500  1.606803  148.063  29.6908  4.971630
  6559.888  6559.880  0.500  1.599804  147.836  29.8535  5.026417
  6567.245  6567.240  0.500  1.592730  147.61  30.0193  5.084521
  6574.691  6574.680  0.500  1.585904  147.408  30.1836  5.145774
  6582.201  6582.190  0.500  1.578444  147.148  30.3561  5.206099
  6589.792  6589.780  0.500  1.571416  146.881  30.5146  5.260256
  6597.458  6597.450  0.500  1.564152  146.625  30.6836  5.319343
  6605.198  6605.190  0.500  1.556943  146.348  30.8472  5.377218
  6613.023  6613.010  0.500  1.549781  146.122  31.021  5.436561
  6620.919  6620.910  0.500  1.542772  145.817  31.1738  5.493764
  6628.915  6628.880  0.500  1.535701  145.496  31.326  5.553175
  6636.964  6636.930  0.500  1.528183  145.32  31.5242  5.621250
  6645.083  6645.050  0.500  1.521060  145.054  31.6915  5.686593
  6653.278  6653.250  0.500  1.513311  144.836  31.89  5.757841
  6661.545  6661.530  0.500  1.505967  144.604  32.0736  5.824487
  6669.865  6669.880  0.500  1.498635  144.314  32.2448  5.890379
  6678.350  6678.310  0.500  1.491491  144.04  32.4143  5.959788
  6686.805  6686.810  0.500  1.483718  143.815  32.6162  6.033638
  6695.375  6695.390  0.500  1.476473  143.494  32.78  6.100421
  6699.692  6699.710  0.500  1.472619  143.332  32.8696  6.134119

File: Nd-L3-NeodymiumOxide.xdi
# XDI/1.0 BlueSky/1.10.0 BMM/2023-1.0-py310-tiled
# Beamline.name: BMM (06BM) -- Beamline for Materials Measurement (NIST)
# Beamline.xray_source: NSLS-II three-pole wiggler
# Beamline.collimation: paraboloid mirror, 5 nm Rh on 30 nm Pt
# Beamline.focusing: not in use
# Beamline.harmonic_rejection: flat mirror, Si stripe, pitch = 7.0 mrad relative to beam
# Beamline.software: Bluesky 1.10.0, Ophyd 1.7.0, DataBroker 2.0.0b13, Python 3.10.8, 2023-1.0-py310-tiled
# Detector.I0: 10 cm N2
# Detector.I1: 25 cm N2
# Detector.I2: 25 cm N2
# Element.symbol: Nd
# Element.edge: L3
# Element.reference: Nd
# Element.reference_material: Nd2O3
# Facility.name: NSLS-II
# Facility.energy: 3.0
# Facility.current: 399.3
# Facility.mode: top-off
# Facility.GUP: 301027
# Facility.SAF: 310583
# Facility.cycle: 2023-2
# Mono.name: Si(111)
# Mono.d_spacing: 3.13519
# Mono.encoder_resolution: 0.0000050 deg/ct
# Mono.angle_offset: 16.0754 deg
# Mono.scan_mode: pseudo channel cut
# Mono.scan_type: step
# Mono.direction: forward in energy
# Sample.name: Nd2O3
# Sample.prep: PEG pellet
# Sample.x: 109.138 mm
# Sample.y: 153.150 mm
# Sample.SDD_position: 205.000 mm
# Scan.experimenters: Bruce Ravel
# Scan.edge_energy: 6207.9
# Scan.start_time: 2023-05-28T12:05:48
# Scan.end_time: 2023-05-28T12:12:27
# Scan.transient_id: 78665
# Scan.uid: 5ee119b5-a419-41d0-89a6-3679bcaa33e3
# Scan.plot_hint: ln(It/Ir)  --  ln($6/$7)
# Column.1: energy eV
# Column.2: requested_energy eV
# Column.3: measurement_time seconds
# Column.4: xmu
# Column.5: I0 nA
# Column.6: It nA
# Column.7: Ir nA
# ///////////
# sample courtesy Martin Stennett, University of Sheffield
# -----------
# energy  requested_energy  measurement_time  xmu  I0  It  Ir
  6007.905  6007.900  0.500  2.469902  145.563  90.9783  7.696142
  6037.929  6037.900  0.500  2.433148  146.974  93.4202  8.198567
  6067.913  6067.900  0.500  2.397357  147.438  95.286  8.667021
  6097.912  6097.900  0.500  2.362062  148.391  97.4946  9.186493
  6127.908  6127.900  0.500  2.327715  149.298  99.623  9.715065
  6157.892  6157.900  0.500  2.295577  149.711  101.511  10.2225
  6179.896  6179.900  0.500  2.273520  150.257  103.067  10.6106
  6185.891  6185.900  0.500  2.268506  150.401  103.486  10.7073
  6191.891  6191.900  0.500  2.265037  150.519  103.885  10.786
  6197.896  6197.900  0.500  2.265791  150.64  104.281  10.819
  6198.789  6198.800  0.500  2.266858  150.631  104.35  10.8146
  6199.688  6199.700  0.500  2.268149  150.639  104.341  10.7996
  6200.590  6200.600  0.500  2.269890  150.646  104.384  10.7854
  6201.491  6201.500  0.500  2.272186  150.676  104.492  10.7717
  6202.394  6202.400  0.500  2.275831  150.66  104.476  10.7309
  6203.295  6203.300  0.500  2.280718  150.687  104.532  10.6843
  6204.193  6204.200  0.500  2.287772  150.695  104.668  10.623
  6205.097  6205.100  0.500  2.296834  150.727  104.787  10.5392
  6205.996  6206.000  0.500  2.306813  150.753  104.749  10.4307
  6206.896  6206.900  0.500  2.319347  150.755  104.9  10.3157
  6207.796  6207.800  0.500  2.334203  150.74  104.885  10.162
  6208.697  6208.700  0.500  2.354169  150.764  104.944  9.966739
  6209.600  6209.600  0.500  2.385804  150.765  104.987  9.660410
  6210.494  6210.500  0.500  2.438976  150.762  104.987  9.160161
  6211.400  6211.400  0.500  2.528203  150.781  105.037  8.382216
  6212.301  6212.300  0.500  2.668445  150.793  105.222  7.298227
  6213.200  6213.200  0.500  2.846387  150.804  105.203  6.107422
  6214.100  6214.100  0.500  2.989633  150.805  105.222  5.293306
  6214.998  6215.000  0.500  3.030189  150.804  105.311  5.087215
  6215.900  6215.900  0.500  2.963929  150.786  105.368  5.438648
  6216.799  6216.800  0.500  2.850487  150.827  105.384  6.092911
  6217.702  6217.700  0.500  2.743084  150.858  105.495  6.790896
  6218.603  6218.600  0.500  2.655173  150.852  105.48  7.413858
  6219.501  6219.500  0.500  2.589413  150.856  105.6  7.926799
  6220.401  6220.400  0.500  2.541018  150.87  105.661  8.324608
  6221.298  6221.300  0.500  2.506255  150.874  105.704  8.622651
  6222.199  6222.200  0.500  2.483933  150.9  105.738  8.820084
  6223.100  6223.100  0.500  2.471489  150.877  105.778  8.933904
  6224.000  6224.000  0.500  2.466097  150.911  105.882  8.991078
  6224.901  6224.900  0.500  2.464236  150.911  105.882  9.007820
  6225.803  6225.800  0.500  2.462892  150.929  105.96  9.026510
  6226.698  6226.700  0.500  2.460746  150.928  105.96  9.045930
  6227.602  6227.600  0.500  2.456784  150.951  106.06  9.090381
  6228.502  6228.500  0.500  2.451399  150.965  106.079  9.141150
  6229.398  6229.400  0.500  2.445524  150.979  106.119  9.198436
  6230.299  6230.300  0.500  2.440817  150.963  106.171  9.246401
  6231.201  6231.200  0.500  2.437746  150.972  106.215  9.278680
  6232.098  6232.100  0.500  2.436790  150.978  106.31  9.295897
  6232.900  6232.900  0.500  2.438034  151.423  106.704  9.318704
  6235.921  6235.910  0.500  2.456850  151.504  106.874  9.159614
  6239.114  6239.100  0.500  2.481296  151.584  107.111  8.958202
  6242.479  6242.460  0.500  2.502814  151.63  107.329  8.785349
  6245.976  6245.980  0.500  2.512714  151.593  107.498  8.712470
  6249.681  6249.680  0.500  2.503560  151.692  107.743  8.812658
  6253.547  6253.550  0.500  2.482903  151.712  108.001  9.018099
  6257.603  6257.600  0.500  2.456838  151.76  108.224  9.275381
  6261.811  6261.810  0.500  2.437250  151.785  108.419  9.475877
  6266.194  6266.190  0.500  2.429884  151.869  108.708  9.571388
  6270.750  6270.750  0.500  2.426349  151.923  109.027  9.633500
  6275.489  6275.480  0.500  2.427256  151.96  109.32  9.650611
  6280.386  6280.380  0.500  2.431288  152.056  109.609  9.637189
  6285.453  6285.450  0.500  2.437627  152.098  109.955  9.606547
  6290.700  6290.690  0.500  2.438804  152.15  110.247  9.620737
  6296.122  6296.110  0.500  2.431525  152.212  110.573  9.719636
  6301.697  6301.690  0.500  2.420211  152.258  110.873  9.856954
  6307.462  6307.450  0.500  2.406554  152.301  111.211  10.023
  6313.392  6313.380  0.500  2.394061  152.368  111.546  10.1795
  6319.487  6319.480  0.500  2.387872  152.423  111.887  10.274
  6325.756  6325.750  0.500  2.383933  152.444  112.26  10.3489
  6332.198  6332.190  0.500  2.378752  152.494  112.652  10.439
  6338.811  6338.800  0.500  2.374079  152.52  112.969  10.5174
  6345.600  6345.590  0.500  2.369328  152.58  113.441  10.6117
  6352.562  6352.550  0.500  2.367401  152.612  113.767  10.6627
  6359.679  6359.670  0.500  2.361421  152.664  114.253  10.7725
  6366.976  6366.970  0.500  2.351005  152.726  114.655  10.9235
  6374.462  6374.450  0.500  2.338308  152.737  115.086  11.1047
  6382.102  6382.090  0.500  2.327831  152.746  115.421  11.2543
  6389.910  6389.900  0.500  2.320376  152.727  115.826  11.3784
  6397.897  6397.890  0.500  2.313986  152.744  116.277  11.4959
  6406.064  6406.050  0.500  2.306866  152.715  116.683  11.6185
  6414.382  6414.370  0.500  2.298483  152.733  117.108  11.7589
  6422.884  6422.870  0.500  2.290267  152.717  117.531  11.8988
  6431.563  6431.550  0.500  2.281944  152.619  117.928  12.0387
  6440.397  6440.390  0.500  2.274562  152.56  118.374  12.1738
  6449.405  6449.400  0.500  2.266317  149.911  116.721  12.1032
  6458.600  6458.590  0.500  2.256357  149.459  116.814  12.2341
  6467.957  6467.950  0.500  2.244886  152.169  119.426  12.6519
  6477.480  6477.470  0.500  2.234931  152.029  119.818  12.8204
  6487.180  6487.170  0.500  2.226364  151.97  120.265  12.979
  6497.063  6497.050  0.500  2.218563  151.817  120.593  13.1164
  6507.101  6507.090  0.500  2.209094  151.622  120.906  13.2755
  6517.315  6517.300  0.500  2.198663  151.413  121.319  13.4605
  6527.718  6527.690  0.500  2.188216  151.222  121.677  13.6421
  6538.242  6538.250  0.500  2.178668  151.002  122.064  13.8167
  6548.970  6548.980  0.500  2.168883  150.69  122.35  13.9852
  6559.870  6559.880  0.500  2.158894  150.38  122.6  14.1545
  6570.965  6570.950  0.500  2.147430  150.157  122.914  14.3544
  6582.201  6582.190  0.500  2.136158  149.902  123.278  14.5601
  6593.593  6593.610  0.500  2.125814  149.579  123.56  14.7451
  6605.179  6605.190  0.500  2.115249  149.564  124.199  14.9788
  6616.959  6616.950  0.500  2.104921  149.307  124.546  15.1766
  6628.865  6628.880  0.500  2.094224  148.88  124.766  15.3669
  6640.968  6640.980  0.500  2.082728  148.712  125.193  15.5977
  6653.261  6653.250  0.500  2.071179  148.388  125.523  15.8206
  6665.671  6665.690  0.500  2.060245  148.098  125.85  16.0361
  6678.298  6678.310  0.500  2.048715  147.738  126.153  16.2612
  6691.084  6691.090  0.500  2.037211  147.43  126.441  16.4868
  6699.695  6699.710  0.500  2.029941  147.153  126.637  16.6329