Folder: webxdiviewer/xdidata/Ni (part 2)

File: Ni-K-NickelFerrite.xdi
# XDI/1.0 BlueSky/1.10.0 BMM/2023-1.0-py310-tiled
# Beamline.name: BMM (06BM) -- Beamline for Materials Measurement (NIST)
# Beamline.xray_source: NSLS-II three-pole wiggler
# Beamline.collimation: paraboloid mirror, 5 nm Rh on 30 nm Pt
# Beamline.focusing: not in use
# Beamline.harmonic_rejection: flat mirror, Pt stripe, pitch = 7.0 mrad relative to beam
# Beamline.software: Bluesky 1.10.0, Ophyd 1.7.0, DataBroker 2.0.0b13, Python 3.10.8, 2023-1.0-py310-tiled
# Detector.I0: 10 cm N2
# Detector.I1: 25 cm N2
# Detector.I2: 25 cm N2
# Element.symbol: Ni
# Element.edge: K
# Element.reference: Ni
# Element.reference_material: Ni foil
# Facility.name: NSLS-II
# Facility.energy: 3.0
# Facility.current: 400.8
# Facility.mode: top-off
# Facility.GUP: 301027
# Facility.SAF: 310583
# Facility.cycle: 2023-2
# Mono.name: Si(111)
# Mono.d_spacing: 3.13519
# Mono.encoder_resolution: 0.0000050 deg/ct
# Mono.angle_offset: 16.0754 deg
# Mono.scan_mode: pseudo channel cut
# Mono.scan_type: step
# Mono.direction: forward in energy
# Sample.name: NiFe2O4
# Sample.prep: PEG pellet
# Sample.x: 119.711 mm
# Sample.y: 114.376 mm
# Sample.SDD_position: 205.000 mm
# Scan.experimenters: Bruce Ravel
# Scan.edge_energy: 8332.8
# Scan.start_time: 2023-06-27T09:40:27
# Scan.end_time: 2023-06-27T09:48:28
# Scan.transient_id: 85109
# Scan.uid: 5737853b-b599-442c-984f-e4d3f50aa928
# Scan.plot_hint: ln(I0/It)  --  ln($5/$6)
# Column.1: energy eV
# Column.2: requested_energy eV
# Column.3: measurement_time seconds
# Column.4: xmu
# Column.5: I0 nA
# Column.6: It nA
# Column.7: Ir nA
# ///////////
# courtesy Martin Stennett, University of Sheffield
# -----------
# energy  requested_energy  measurement_time  xmu  I0  It  Ir
  8132.812  8132.800  0.500  2.701235  130.66  8.770214  3.574449
  8162.836  8162.800  0.500  2.667872  130.664  9.068085  3.731266
  8192.888  8192.800  0.500  2.634909  130.609  9.368015  3.891930
  8222.786  8222.800  0.500  2.602668  130.546  9.670309  4.055783
  8252.811  8252.800  0.500  2.570662  130.443  9.976889  4.223179
  8282.825  8282.800  0.500  2.539471  130.198  10.2737  4.385279
  8304.814  8304.800  0.500  2.518101  130.059  10.4844  4.495781
  8310.802  8310.800  0.500  2.512854  130.032  10.5373  4.522396
  8316.802  8316.800  0.500  2.507786  129.999  10.5882  4.542470
  8322.799  8322.800  0.500  2.503791  129.915  10.6237  4.546732
  8323.675  8323.700  0.500  2.503502  129.877  10.6237  4.543099
  8324.575  8324.600  0.500  2.502956  129.908  10.632  4.541424
  8325.478  8325.500  0.500  2.502593  129.888  10.6342  4.537237
  8326.382  8326.400  0.500  2.502443  129.846  10.6324  4.529219
  8327.291  8327.300  0.500  2.502311  129.835  10.6329  4.519055
  8328.189  8328.200  0.500  2.502299  129.789  10.6293  4.503905
  8329.087  8329.100  0.500  2.502554  129.793  10.6269  4.483301
  8329.983  8330.000  0.500  2.503166  129.755  10.6173  4.446572
  8330.887  8330.900  0.500  2.504575  129.739  10.601  4.374237
  8331.798  8331.800  0.500  2.508244  129.735  10.5619  4.202887
  8332.697  8332.700  0.500  2.517230  129.702  10.4648  3.864079
  8333.602  8333.600  0.500  2.521631  129.609  10.4113  3.523576
  8334.498  8334.500  0.500  2.518179  129.566  10.4438  3.297580
  8335.392  8335.400  0.500  2.523053  129.518  10.3892  3.123818
  8336.291  8336.300  0.500  2.531606  129.513  10.3003  3.009091
  8337.191  8337.200  0.500  2.540376  129.48  10.2078  2.926471
  8338.103  8338.100  0.500  2.551397  129.422  10.0914  2.825469
  8339.004  8339.000  0.500  2.572670  129.431  9.879642  2.670687
  8339.904  8339.900  0.500  2.611978  129.378  9.494931  2.479323
  8340.796  8340.800  0.500  2.676338  129.332  8.899963  2.258753
  8341.697  8341.700  0.500  2.766278  129.358  8.136048  2.000265
  8342.601  8342.600  0.500  2.860429  129.292  7.401198  1.743699
  8343.505  8343.500  0.500  2.948480  129.246  6.774995  1.511448
  8344.401  8344.400  0.500  3.054559  129.259  6.093705  1.272587
  8345.297  8345.300  0.500  3.205876  129.189  5.235181  1.017781
  8346.198  8346.200  0.500  3.374240  129.191  4.424035  0.799557
  8347.104  8347.100  0.500  3.509400  129.138  3.863137  0.650133
  8348.003  8348.000  0.500  3.596525  129.093  3.539594  0.562205
  8348.896  8348.900  0.500  3.673138  129.043  3.277268  0.504581
  8349.793  8349.800  0.500  3.776367  128.954  2.953783  0.449625
  8350.705  8350.700  0.500  3.874838  128.901  2.675695  0.408113
  8351.605  8351.600  0.500  3.886318  128.81  2.643274  0.407688
  8352.497  8352.500  0.500  3.795346  128.743  2.893524  0.451897
  8353.397  8353.400  0.500  3.654814  128.685  3.328612  0.524355
  8354.301  8354.300  0.500  3.528492  128.605  3.774444  0.593961
  8355.199  8355.200  0.500  3.444206  128.623  4.106947  0.636894
  8356.097  8356.100  0.500  3.391729  128.584  4.326907  0.654892
  8357.004  8357.000  0.500  3.352656  128.613  4.500347  0.663681
  8357.807  8357.800  0.500  3.314796  128.593  4.673262  0.680044
  8360.827  8360.810  0.500  3.161520  128.59  5.447222  0.813272
  8364.024  8364.000  0.500  3.170692  128.54  5.395424  0.836764
  8367.379  8367.360  0.500  3.235234  128.542  5.058260  0.815334
  8370.903  8370.880  0.500  3.172660  128.833  5.397065  0.875288
  8374.598  8374.580  0.500  3.123850  128.882  5.669176  0.887234
  8378.465  8378.450  0.500  3.102199  128.854  5.792036  0.847271
  8382.522  8382.500  0.500  3.143509  128.804  5.555491  0.772843
  8386.722  8386.710  0.500  3.197435  128.688  5.259078  0.762643
  8391.102  8391.090  0.500  3.269834  128.598  4.888356  0.765526
  8395.665  8395.650  0.500  3.334254  128.505  4.580068  0.746635
  8400.396  8400.380  0.500  3.356440  128.443  4.477401  0.731333
  8405.296  8405.280  0.500  3.328102  128.362  4.603192  0.757590
  8410.369  8410.350  0.500  3.261166  128.307  4.919749  0.793683
  8415.610  8415.590  0.500  3.194770  128.214  5.253678  0.829438
  8421.028  8421.010  0.500  3.158096  128.123  5.446062  0.828949
  8426.611  8426.590  0.500  3.151017  128.045  5.481440  0.798084
  8432.376  8432.350  0.500  3.157066  127.975  5.445380  0.767155
  8438.307  8438.280  0.500  3.165569  127.881  5.395301  0.791516
  8444.453  8444.380  0.500  3.184735  127.805  5.289739  0.826960
  8450.678  8450.650  0.500  3.197938  127.652  5.214120  0.851140
  8457.102  8457.090  0.500  3.173445  127.563  5.339672  0.925204
  8463.722  8463.700  0.500  3.130608  127.43  5.567555  0.966011
  8470.512  8470.490  0.500  3.118803  127.335  5.629467  0.932853
  8477.467  8477.450  0.500  3.152105  127.218  5.440093  0.885291
  8484.579  8484.570  0.500  3.163085  127.094  5.375445  0.877446
  8491.874  8491.870  0.500  3.151329  127.014  5.435596  0.817261
  8499.362  8499.350  0.500  3.141171  126.844  5.483722  0.797592
  8507.006  8506.990  0.500  3.124342  126.738  5.572152  0.834072
  8514.817  8514.800  0.500  3.091599  126.573  5.750131  0.951487
  8522.805  8522.790  0.500  3.055389  126.42  5.954931  1.090933
  8530.967  8530.950  0.500  3.034106  112.826  5.428912  0.975861
  8539.284  8539.270  0.500  3.050655  126.006  5.963580  1.006927
  8547.783  8547.770  0.500  3.068172  125.929  5.856478  0.977902
  8556.460  8556.450  0.500  3.062810  125.773  5.880672  0.998468
  8565.307  8565.290  0.500  3.045853  125.577  5.971914  1.032864
  8574.317  8574.300  0.500  3.030480  125.375  6.054689  0.997850
  8583.499  8583.490  0.500  3.013142  125.137  6.148859  0.991697
  8592.875  8592.850  0.500  2.996749  117.564  5.872214  0.982437
  8602.397  8602.370  0.500  2.985146  124.674  6.300034  1.126538
  8612.100  8612.070  0.500  2.969026  123.739  6.354388  1.162006
  8621.978  8621.950  0.500  2.962800  125.673  6.494007  1.188098
  8632.008  8631.990  0.500  2.955254  124.996  6.507948  1.192045
  8642.215  8642.200  0.500  2.944729  122.191  6.429255  1.162617
  8652.609  8652.590  0.500  2.928816  124.484  6.654975  1.195383
  8663.167  8663.150  0.500  2.909017  124.243  6.774892  1.208128
  8673.903  8673.880  0.500  2.899996  123.998  6.822818  1.213080
  8684.803  8684.780  0.500  2.889327  123.783  6.884030  1.257932
  8695.867  8695.850  0.500  2.874929  123.514  6.968697  1.302612
  8707.104  8707.090  0.500  2.865549  120.747  6.876752  1.291944
  8718.528  8718.510  0.500  2.856336  123.066  7.073680  1.363322
  8730.103  8730.090  0.500  2.842780  122.861  7.158312  1.385291
  8741.855  8741.850  0.500  2.825182  122.631  7.271763  1.407657
  8753.797  8753.780  0.500  2.808647  122.366  7.377017  1.423165
  8765.892  8765.880  0.500  2.796318  122.122  7.453635  1.435928
  8778.161  8778.150  0.500  2.781995  121.855  7.544627  1.455551
  8790.604  8790.590  0.500  2.768242  121.58  7.631843  1.494856
  8803.227  8803.210  0.500  2.756676  121.286  7.701977  1.534268
  8816.014  8815.990  0.500  2.745484  121.151  7.779974  1.557820
  8828.974  8828.950  0.500  2.733314  121.106  7.872294  1.591432
  8842.104  8842.080  0.500  2.717492  120.847  7.980748  1.634377
  8855.405  8855.380  0.500  2.702024  120.566  8.086326  1.671611
  8868.873  8868.850  0.500  2.687118  120.234  8.185179  1.698513
  8882.529  8882.500  0.500  2.672528  119.911  8.283107  1.717338
  8896.331  8896.310  0.500  2.658459  119.608  8.379243  1.735586
  8910.309  8910.300  0.500  2.645380  119.043  8.449494  1.773180
  8924.484  8924.460  0.500  2.632263  116.757  8.396647  1.785206
  8938.825  8938.790  0.500  2.616907  118.723  8.670156  1.858943
  8953.321  8953.290  0.500  2.602052  118.105  8.754067  1.892047
  8967.979  8967.960  0.500  2.587109  118.048  8.881573  1.935635
  8982.833  8982.800  0.500  2.572365  117.461  8.968724  1.972141
  8997.848  8997.820  0.500  2.558428  117.348  9.085851  2.009490
  9013.027  9013.000  0.500  2.544458  116.736  9.165615  2.037177
  9028.364  9028.360  0.500  2.530078  116.738  9.298520  2.078142
  9043.885  9043.890  0.500  2.515450  116.153  9.388235  2.113213
  9059.581  9059.590  0.500  2.499805  115.988  9.522772  2.163288
  9075.496  9075.460  0.500  2.484794  115.648  9.638377  2.208225
  9091.522  9091.510  0.500  2.469633  115.246  9.751627  2.253280
  9107.752  9107.720  0.500  2.454380  114.842  9.866778  2.297801
  9124.124  9124.110  0.500  2.439672  114.509  9.983976  2.345137
  9140.701  9140.670  0.500  2.424936  114.044  10.091  2.387191
  9157.416  9157.400  0.500  2.410040  113.021  10.1506  2.416109
  9174.327  9174.300  0.500  2.394973  113.484  10.347  2.479807
  9185.674  9185.660  0.500  2.384997  113.335  10.4369  2.514340

File: Ni-K-NickelOxide.xdi
# XDI/1.0 BlueSky/1.10.0 BMM/2023-1.0-py310-tiled
# Beamline.name: BMM (06BM) -- Beamline for Materials Measurement (NIST)
# Beamline.xray_source: NSLS-II three-pole wiggler
# Beamline.collimation: paraboloid mirror, 5 nm Rh on 30 nm Pt
# Beamline.focusing: not in use
# Beamline.harmonic_rejection: flat mirror, Pt stripe, pitch = 7.0 mrad relative to beam
# Beamline.software: Bluesky 1.10.0, Ophyd 1.7.0, DataBroker 2.0.0b13, Python 3.10.8, 2023-1.0-py310-tiled
# Detector.I0: 10 cm N2
# Detector.I1: 25 cm N2
# Detector.I2: 25 cm N2
# Element.symbol: Ni
# Element.edge: K
# Element.reference: Ni
# Element.reference_material: Ni foil
# Facility.name: NSLS-II
# Facility.energy: 3.0
# Facility.current: 400.0
# Facility.mode: top-off
# Facility.GUP: 301027
# Facility.SAF: 310583
# Facility.cycle: 2023-2
# Mono.name: Si(111)
# Mono.d_spacing: 3.13519
# Mono.encoder_resolution: 0.0000050 deg/ct
# Mono.angle_offset: 16.0754 deg
# Mono.scan_mode: pseudo channel cut
# Mono.scan_type: step
# Mono.direction: forward in energy
# Sample.name: NiO
# Sample.prep: powder in PEG pellet
# Sample.x: 117.785 mm
# Sample.y: 114.695 mm
# Sample.SDD_position: 205.000 mm
# Scan.experimenters: Bruce Ravel
# Scan.edge_energy: 8332.8
# Scan.start_time: 2023-06-23T15:24:28
# Scan.end_time: 2023-06-23T15:32:29
# Scan.transient_id: 84845
# Scan.uid: 4ad14882-a8fb-43f3-9eb1-149c876869b4
# Scan.plot_hint: ln(I0/It)  --  ln($5/$6)
# Column.1: energy eV
# Column.2: requested_energy eV
# Column.3: measurement_time seconds
# Column.4: xmu
# Column.5: I0 nA
# Column.6: It nA
# Column.7: Ir nA
# ///////////
# sample courtesy Martin Stennett, University of Sheffield
# -----------
# energy  requested_energy  measurement_time  xmu  I0  It  Ir
  8132.832  8132.800  0.500  1.502842  135.876  30.232  11.6121
  8162.850  8162.800  0.500  1.479443  135.213  30.7968  11.9508
  8192.824  8192.800  0.500  1.456591  134.598  31.3653  12.2978
  8222.780  8222.800  0.500  1.434325  133.991  31.9268  12.6448
  8252.800  8252.800  0.500  1.413028  131.904  32.1061  12.8385
  8282.801  8282.800  0.500  1.394062  131.21  32.5486  13.135
  8304.784  8304.800  0.500  1.385227  130.647  32.6967  13.2621
  8310.781  8310.800  0.500  1.385163  130.458  32.6513  13.2529
  8316.781  8316.800  0.500  1.387576  130.315  32.537  13.2032
  8322.781  8322.800  0.500  1.395009  130.166  32.2593  13.0582
  8323.675  8323.700  0.500  1.396921  130.073  32.1745  13.0124
  8324.572  8324.600  0.500  1.399207  130.02  32.088  12.9623
  8325.475  8325.500  0.500  1.401749  129.949  31.989  12.9077
  8326.379  8326.400  0.500  1.404927  129.867  31.8675  12.8341
  8327.285  8327.300  0.500  1.408789  129.848  31.7399  12.7489
  8328.192  8328.200  0.500  1.413208  129.832  31.5961  12.6498
  8329.087  8329.100  0.500  1.418870  129.81  31.4123  12.51
  8329.992  8330.000  0.500  1.426596  129.765  31.1598  12.2962
  8330.890  8330.900  0.500  1.438603  129.676  30.7669  11.9035
  8331.792  8331.800  0.500  1.464981  129.674  29.9655  11.0365
  8332.700  8332.700  0.500  1.513132  129.615  28.5437  9.661508
  8333.602  8333.600  0.500  1.512297  129.504  28.5431  8.878770
  8334.501  8334.500  0.500  1.502413  129.38  28.7991  8.417208
  8335.395  8335.400  0.500  1.527850  129.396  28.0791  7.878167
  8336.291  8336.300  0.500  1.594530  129.348  26.2581  7.192036
  8337.197  8337.200  0.500  1.683221  129.333  24.0268  6.458400
  8338.100  8338.100  0.500  1.776626  129.315  21.8811  5.723462
  8339.004  8339.000  0.500  1.935040  129.283  18.6709  4.707614
  8339.895  8339.900  0.500  2.212076  129.252  14.1496  3.455662
  8340.799  8340.800  0.500  2.569470  129.185  9.892455  2.346600
  8341.697  8341.700  0.500  2.902302  129.187  7.091918  1.623099
  8342.604  8342.600  0.500  3.214599  129.114  5.186713  1.132003
  8343.502  8343.500  0.500  3.544265  129.091  3.729410  0.767999
  8344.401  8344.400  0.500  4.040880  129.514  2.277123  0.438541
  8345.297  8345.300  0.500  4.704137  129.508  1.173052  0.208539
  8346.207  8346.200  0.500  5.190626  129.478  0.721003  0.117984
  8347.104  8347.100  0.500  5.536824  129.422  0.509796  0.077143
  8348.006  8348.000  0.500  5.890066  129.379  0.357964  0.051006
  8348.893  8348.900  0.500  6.296244  129.32  0.238365  0.032651
  8349.793  8349.800  0.500  6.609446  129.229  0.174146  0.023139
  8350.702  8350.700  0.500  6.546800  129.097  0.185216  0.024994
  8351.605  8351.600  0.500  6.245530  129.098  0.250335  0.034723
  8352.506  8352.500  0.500  5.882589  129.002  0.359600  0.051355
  8353.400  8353.400  0.500  5.528607  128.907  0.511955  0.074207
  8354.298  8354.300  0.500  5.263420  128.926  0.667522  0.096542
  8355.208  8355.200  0.500  5.097451  128.897  0.787861  0.112324
  8356.103  8356.100  0.500  4.959080  128.887  0.904708  0.125768
  8357.001  8357.000  0.500  4.771569  128.879  1.091228  0.148728
  8357.807  8357.800  0.500  4.572968  128.854  1.330714  0.180258
  8360.836  8360.810  0.500  4.080010  128.817  2.177946  0.306156
  8364.012  8364.000  0.500  4.375107  128.753  1.620582  0.236184
  8367.370  8367.360  0.500  4.541087  128.662  1.371773  0.206806
  8370.894  8370.880  0.500  4.320579  128.561  1.708859  0.258993
  8374.595  8374.580  0.500  4.154457  128.527  2.017143  0.293907
  8378.471  8378.450  0.500  4.113722  128.478  2.100198  0.285773
  8382.510  8382.500  0.500  4.314400  128.362  1.716793  0.223519
  8386.716  8386.710  0.500  4.452730  128.205  1.493168  0.203733
  8391.099  8391.090  0.500  4.799994  128.065  1.053951  0.154396
  8395.661  8395.650  0.500  5.101833  127.901  0.778351  0.117866
  8400.390  8400.380  0.500  5.202597  127.796  0.703166  0.106409
  8405.299  8405.280  0.500  4.962502  127.652  0.892974  0.136307
  8410.360  8410.350  0.500  4.655872  127.534  1.212285  0.182566
  8415.592  8415.590  0.500  4.417544  127.393  1.536849  0.226503
  8421.037  8421.010  0.500  4.303388  127.291  1.721314  0.244653
  8426.593  8426.590  0.500  4.392049  127.13  1.573279  0.213445
  8432.354  8432.350  0.500  4.507582  126.994  1.400117  0.184079
  8438.292  8438.280  0.500  4.525207  126.813  1.373693  0.188858
  8444.388  8444.380  0.500  4.626799  126.66  1.239503  0.181406
  8450.662  8450.650  0.500  4.753031  126.498  1.091111  0.166509
  8457.099  8457.090  0.500  4.617194  126.286  1.247769  0.202262
  8463.703  8463.700  0.500  4.362588  126.092  1.607085  0.260410
  8470.502  8470.490  0.500  4.359309  125.908  1.610011  0.249174
  8477.455  8477.450  0.500  4.644661  125.786  1.209156  0.183773
  8484.601  8484.570  0.500  4.605049  125.57  1.255853  0.190912
  8491.881  8491.870  0.500  4.534840  125.408  1.345461  0.188279
  8499.368  8499.350  0.500  4.623916  125.159  1.228344  0.166816
  8507.009  8506.990  0.500  4.640910  125.008  1.206187  0.168971
  8514.823  8514.800  0.500  4.497362  124.703  1.388979  0.216156
  8522.811  8522.790  0.500  4.246100  124.334  1.780465  0.306812
  8530.977  8530.950  0.500  4.151788  108.595  1.708874  0.287558
  8539.299  8539.270  0.500  4.363778  124.322  1.582640  0.249890
  8547.774  8547.770  0.500  4.531849  124.066  1.335042  0.208535
  8556.473  8556.450  0.500  4.520385  123.767  1.347183  0.214386
  8565.310  8565.290  0.500  4.452527  123.553  1.439282  0.232656
  8574.326  8574.300  0.500  4.409392  123.312  1.499789  0.231115
  8583.502  8583.490  0.500  4.350888  122.954  1.585541  0.239623
  8592.872  8592.850  0.500  4.334795  112.201  1.470346  0.231228
  8602.394  8602.370  0.500  4.280271  122.012  1.688516  0.283718
  8612.096  8612.070  0.500  4.213788  121.012  1.789792  0.307406
  8621.975  8621.950  0.500  4.240136  123.172  1.774374  0.304645
  8632.008  8631.990  0.500  4.306786  122.296  1.648156  0.283388
  8642.244  8642.200  0.500  4.325124  120.175  1.590144  0.269876
  8652.619  8652.590  0.500  4.288906  121.422  1.665901  0.280798
  8663.196  8663.150  0.500  4.171539  121.508  1.874689  0.314265
  8673.903  8673.880  0.500  4.152722  121.186  1.905226  0.318655
  8684.800  8684.780  0.500  4.153191  120.845  1.898986  0.326403
  8695.871  8695.850  0.500  4.133027  120.418  1.930823  0.339660
  8707.104  8707.090  0.500  4.163742  114.235  1.776269  0.314064
  8718.518  8718.510  0.500  4.188121  120.184  1.823757  0.330494
  8730.103  8730.090  0.500  4.154805  119.756  1.878831  0.342125
  8741.871  8741.850  0.500  4.074144  119.329  2.029408  0.369819
  8753.801  8753.780  0.500  4.019240  119.015  2.138303  0.388947
  8765.896  8765.880  0.500  4.046177  118.615  2.074474  0.376715
  8778.171  8778.150  0.500  4.024785  118.324  2.114121  0.384366
  8790.618  8790.590  0.500  4.002529  117.914  2.154223  0.398360
  8803.284  8803.210  0.500  3.994153  117.495  2.164616  0.406906
  8816.024  8815.990  0.500  3.996908  117.147  2.152260  0.406683
  8828.964  8828.950  0.500  3.991579  116.768  2.156762  0.411718
  8842.137  8842.080  0.500  3.955082  116.37  2.229316  0.430882
  8855.453  8855.380  0.500  3.917398  116.026  2.308084  0.450456
  8868.833  8868.850  0.500  3.886359  115.654  2.373211  0.465441
  8882.533  8882.500  0.500  3.873181  115.201  2.395269  0.469442
  8896.382  8896.310  0.500  3.851730  114.78  2.438267  0.477784
  8910.391  8910.300  0.500  3.858447  113.8  2.401275  0.476702
  8924.546  8924.460  0.500  3.853599  112.1  2.376894  0.478264
  8938.756  8938.790  0.500  3.808284  113.663  2.521758  0.511978
  8953.269  8953.290  0.500  3.793477  112.89  2.541961  0.520016
  8967.938  8967.960  0.500  3.764212  112.659  2.612105  0.539276
  8982.784  8982.800  0.500  3.748270  111.938  2.637081  0.549086
  8997.785  8997.820  0.500  3.733347  111.834  2.674237  0.560688
  9012.999  9013.000  0.500  3.717194  111.236  2.703265  0.569625
  9028.340  9028.360  0.500  3.708628  110.916  2.718677  0.576055
  9043.860  9043.890  0.500  3.680292  110.344  2.782384  0.594386
  9059.556  9059.590  0.500  3.656701  109.905  2.837470  0.611481
  9075.435  9075.460  0.500  3.642234  109.403  2.865672  0.623180
  9091.465  9091.510  0.500  3.617108  108.906  2.925250  0.641979
  9107.677  9107.720  0.500  3.594124  108.451  2.980756  0.659126
  9124.067  9124.110  0.500  3.575123  107.976  3.024618  0.675209
  9140.633  9140.670  0.500  3.563623  107.282  3.039951  0.683700
  9157.358  9157.400  0.500  3.552363  105.836  3.032929  0.685979
  9174.266  9174.300  0.500  3.525874  106.448  3.132348  0.713416
  9185.634  9185.660  0.500  3.510438  106.359  3.178411  0.728610