Folder: webxdiviewer/xdidata/Pb (part 7)

File: Pb-L3-Massicot.xdi
# XDI/1.0 BlueSky/1.10.0 BMM/2023-1.0-py310-tiled
# Beamline.name: BMM (06BM) -- Beamline for Materials Measurement (NIST)
# Beamline.xray_source: NSLS-II three-pole wiggler
# Beamline.collimation: paraboloid mirror, 5 nm Rh on 30 nm Pt
# Beamline.focusing: not in use
# Beamline.harmonic_rejection: flat mirror, Pt stripe, pitch = 7.0 mrad relative to beam
# Beamline.software: Bluesky 1.10.0, Ophyd 1.7.0, DataBroker 2.0.0b13, Python 3.10.8, 2023-1.0-py310-tiled
# Detector.I0: 10 cm N2
# Detector.I1: 25 cm N2
# Detector.I2: 25 cm N2
# Element.symbol: Pb
# Element.edge: L3
# Element.reference: Pb
# Element.reference_material: Pb foil
# Facility.name: NSLS-II
# Facility.energy: 3.0
# Facility.current: 400.1
# Facility.mode: top-off
# Facility.GUP: 301027
# Facility.SAF: 310583
# Facility.cycle: 2023-2
# Mono.name: Si(111)
# Mono.d_spacing: 3.13519
# Mono.encoder_resolution: 0.0000050 deg/ct
# Mono.angle_offset: 16.0754 deg
# Mono.scan_mode: pseudo channel cut
# Mono.scan_type: step
# Mono.direction: forward in energy
# Sample.name: PbO
# Sample.prep: powder on tape
# Sample.x: 143.785 mm
# Sample.y: 114.695 mm
# Sample.SDD_position: 205.000 mm
# Scan.experimenters: Bruce Ravel
# Scan.edge_energy: 13035.2
# Scan.start_time: 2023-06-23T16:41:09
# Scan.end_time: 2023-06-23T16:49:32
# Scan.transient_id: 84872
# Scan.uid: 829dc3ec-db94-4b86-8ee1-22a8b4761c2a
# Scan.plot_hint: ln(I0/It)  --  ln($5/$6)
# Column.1: energy eV
# Column.2: requested_energy eV
# Column.3: measurement_time seconds
# Column.4: xmu
# Column.5: I0 nA
# Column.6: It nA
# Column.7: Ir nA
# ///////////
# BMM standards collection
# -----------
# energy  requested_energy  measurement_time  xmu  I0  It  Ir
  12835.161  12835.200  0.500  0.592095  50.0585  27.6907  12.3653
  12865.232  12865.200  0.500  0.583970  49.7252  27.7308  12.448
  12895.200  12895.200  0.500  0.576058  49.365  27.7485  12.52
  12925.243  12925.200  0.500  0.568423  48.9928  27.7504  12.5808
  12955.319  12955.200  0.500  0.561667  48.4414  27.6241  12.5736
  12985.213  12985.200  0.500  0.557416  48.2801  27.6494  12.6144
  13007.132  13007.200  0.500  0.560375  48.0328  27.4264  12.4801
  13013.149  13013.200  0.500  0.564054  47.9563  27.2822  12.3753
  13019.128  13019.200  0.500  0.571225  47.8852  27.0472  12.2037
  13025.172  13025.200  0.500  0.586086  47.8139  26.6085  11.867
  13026.052  13026.100  0.500  0.589576  47.7983  26.5072  11.789
  13026.948  13027.000  0.500  0.593689  47.7863  26.3917  11.699
  13027.837  13027.900  0.500  0.598499  47.7724  26.2575  11.5968
  13028.769  13028.800  0.500  0.604345  47.7593  26.0972  11.4736
  13029.658  13029.700  0.500  0.611193  47.7493  25.9137  11.3284
  13030.547  13030.600  0.500  0.619681  47.7361  25.6876  11.1541
  13031.451  13031.500  0.500  0.630498  47.7217  25.4035  10.9342
  13032.384  13032.400  0.500  0.644614  47.7135  25.0432  10.6551
  13033.273  13033.300  0.500  0.662780  47.6982  24.5845  10.3061
  13034.177  13034.200  0.500  0.685871  47.6861  24.0172  9.887588
  13035.089  13035.100  0.500  0.714908  47.8423  23.4063  9.424502
  13036.001  13036.000  0.500  0.750087  47.8306  22.5916  8.868167
  13036.898  13036.900  0.500  0.788343  47.8172  21.7376  8.302054
  13037.802  13037.800  0.500  0.825589  47.8055  20.9377  7.771347
  13038.685  13038.700  0.500  0.859216  47.794  20.2405  7.290166
  13039.590  13039.600  0.500  0.889702  47.7787  19.6264  6.841229
  13040.502  13040.500  0.500  0.920929  47.7699  19.0195  6.387028
  13041.392  13041.400  0.500  0.956304  47.7586  18.3541  5.913391
  13042.298  13042.300  0.500  0.999458  47.7421  17.5729  5.410191
  13043.181  13043.200  0.500  1.052667  47.7318  16.6587  4.902203
  13044.071  13044.100  0.500  1.117828  47.7187  15.6035  4.392784
  13044.999  13045.000  0.500  1.190930  47.7064  14.4998  3.918654
  13045.898  13045.900  0.500  1.262106  47.6969  13.5009  3.519316
  13046.811  13046.800  0.500  1.322777  47.6765  12.7008  3.209086
  13047.702  13047.700  0.500  1.368724  47.6402  12.1212  2.988109
  13048.608  13048.600  0.500  1.402709  47.5852  11.7026  2.836133
  13049.514  13049.500  0.500  1.427795  47.5695  11.4089  2.736882
  13050.406  13050.400  0.500  1.448030  47.5972  11.1869  2.674063
  13051.298  13051.300  0.500  1.465566  47.6202  10.9977  2.628646
  13052.204  13052.200  0.500  1.482914  47.6129  10.8069  2.586208
  13053.089  13053.100  0.500  1.503094  47.6008  10.5884  2.539291
  13054.003  13054.000  0.500  1.526143  47.5871  10.3441  2.480552
  13054.903  13054.900  0.500  1.552972  47.5703  10.0667  2.412041
  13055.795  13055.800  0.500  1.581775  47.5562  9.778023  2.334327
  13056.695  13056.700  0.500  1.609843  47.543  9.504739  2.256434
  13057.587  13057.600  0.500  1.635882  47.5332  9.258544  2.180323
  13058.502  13058.500  0.500  1.659439  47.5244  9.041298  2.105699
  13059.395  13059.400  0.500  1.679966  47.5041  8.853829  2.035069
  13060.221  13060.200  0.500  1.694457  47.4902  8.723899  1.980604
  13063.243  13063.210  0.500  1.700977  47.4512  8.660097  1.908285
  13066.400  13066.400  0.500  1.639863  47.4144  9.198706  2.039843
  13069.767  13069.760  0.500  1.588494  47.3599  9.672452  2.178959
  13073.308  13073.280  0.500  1.573466  47.2701  9.800287  2.211579
  13076.970  13076.980  0.500  1.581426  47.2592  9.720346  2.191161
  13080.866  13080.850  0.500  1.586942  47.2188  9.658620  2.169146
  13084.921  13084.900  0.500  1.586082  47.1694  9.656811  2.138880
  13089.112  13089.110  0.500  1.583706  47.1086  9.667297  2.122856
  13093.494  13093.490  0.500  1.592479  46.9697  9.554605  2.112010
  13098.073  13098.050  0.500  1.611778  46.9838  9.374799  2.090680
  13102.783  13102.780  0.500  1.625218  46.893  9.231757  2.071651
  13107.706  13107.680  0.500  1.628088  46.8359  9.194098  2.066801
  13112.760  13112.750  0.500  1.624410  46.7861  9.218166  2.065040
  13118.028  13117.990  0.500  1.615799  46.6429  9.269434  2.064737
  13123.414  13123.410  0.500  1.603993  46.6471  9.380358  2.091413
  13129.022  13128.990  0.500  1.596347  46.5776  9.438260  2.116657
  13134.740  13134.750  0.500  1.590433  46.4966  9.477751  2.133538
  13140.697  13140.680  0.500  1.586507  46.4326  9.501942  2.143012
  13146.787  13146.780  0.500  1.583137  46.3567  9.518427  2.148600
  13153.072  13153.050  0.500  1.582356  46.2656  9.507141  2.147539
  13159.507  13159.490  0.500  1.584102  46.2016  9.477421  2.143303
  13166.122  13166.100  0.500  1.586495  46.1228  9.438647  2.137287
  13172.918  13172.890  0.500  1.586517  46.0393  9.421356  2.136708
  13179.849  13179.850  0.500  1.584156  45.9605  9.427445  2.140549
  13187.001  13186.970  0.500  1.579956  45.8758  9.449699  2.149581
  13194.297  13194.270  0.500  1.576165  45.7853  9.466875  2.159035
  13201.761  13201.750  0.500  1.572964  45.6943  9.478345  2.166559
  13209.416  13209.390  0.500  1.569975  45.6027  9.487665  2.172688
  13217.226  13217.200  0.500  1.566313  45.508  9.502704  2.180128
  13225.204  13225.190  0.500  1.562729  45.3856  9.511171  2.183888
  13233.338  13233.350  0.500  1.559180  45.3138  9.529873  2.190241
  13241.688  13241.670  0.500  1.556157  45.2029  9.535346  2.193666
  13250.195  13250.170  0.500  1.554633  45.2389  9.557472  2.203303
  13258.866  13258.850  0.500  1.554405  45.0974  9.529768  2.202182
  13267.695  13267.690  0.500  1.554164  44.8983  9.489984  2.196842
  13276.712  13276.700  0.500  1.552760  44.2997  9.376611  2.174404
  13285.896  13285.890  0.500  1.548874  44.1783  9.387311  2.179671
  13295.271  13295.250  0.500  1.544002  44.0895  9.414199  2.189378
  13304.790  13304.770  0.500  1.539711  43.9361  9.421799  2.195969
  13314.508  13314.470  0.500  1.536190  43.8877  9.444615  2.207056
  13324.380  13324.350  0.500  1.533433  43.7551  9.442061  2.211698
  13334.430  13334.390  0.500  1.530248  43.6458  9.448540  2.218436
  13344.620  13344.600  0.500  1.525648  43.5771  9.477151  2.230375
  13355.028  13354.990  0.500  1.520793  43.4945  9.505229  2.242250
  13365.593  13365.550  0.500  1.517053  43.3558  9.510427  2.249052
  13376.315  13376.280  0.500  1.514050  43.2334  9.512096  2.255820
  13387.219  13387.180  0.500  1.511711  43.1331  9.512241  2.262731
  13398.282  13398.250  0.500  1.507916  43.0103  9.521231  2.270548
  13409.505  13409.490  0.500  1.502724  42.9076  9.547925  2.281837
  13420.951  13420.910  0.500  1.497605  42.7961  9.571989  2.295315
  13432.535  13432.490  0.500  1.492391  42.653  9.589874  2.306662
  13444.297  13444.250  0.500  1.487984  42.5249  9.603293  2.315880
  13456.214  13456.180  0.500  1.484099  42.4066  9.613854  2.326734
  13468.303  13468.280  0.500  1.479672  42.2693  9.625234  2.336312
  13480.565  13480.550  0.500  1.474796  41.9821  9.606578  2.338462
  13493.025  13492.990  0.500  1.469547  41.9906  9.659074  2.358299
  13505.635  13505.610  0.500  1.465288  41.8981  9.678946  2.371662
  13518.412  13518.390  0.500  1.461136  41.7322  9.680723  2.377615
  13531.398  13531.350  0.500  1.456920  41.5879  9.688017  2.387408
  13544.530  13544.480  0.500  1.451936  41.5089  9.717918  2.401711
  13557.871  13557.780  0.500  1.446701  40.7577  9.592142  2.379594
  13571.304  13571.250  0.500  1.441147  41.1963  9.749366  2.425784
  13584.997  13584.900  0.500  1.435991  41.0792  9.771896  2.439654
  13598.791  13598.710  0.500  1.430942  40.9528  9.791142  2.452154
  13612.759  13612.700  0.500  1.425954  40.7629  9.794462  2.462091
  13626.893  13626.860  0.500  1.420755  40.6494  9.818101  2.476275
  13641.228  13641.190  0.500  1.415235  40.4983  9.835763  2.489237
  13655.749  13655.690  0.500  1.409849  40.3526  9.853291  2.502958
  13670.406  13670.360  0.500  1.404446  40.1911  9.867023  2.515708
  13685.235  13685.200  0.500  1.399029  40.0448  9.884505  2.529687
  13700.252  13700.220  0.500  1.393671  39.8931  9.899975  2.543848
  13715.450  13715.400  0.500  1.387889  39.7423  9.919729  2.557148
  13730.822  13730.760  0.500  1.382097  39.6021  9.942165  2.572707
  13746.320  13746.290  0.500  1.376053  39.4411  9.961765  2.586961
  13762.051  13761.990  0.500  1.370335  39.281  9.978227  2.601740
  13777.894  13777.860  0.500  1.364330  39.1179  9.996657  2.616625
  13793.948  13793.910  0.500  1.358640  38.9592  10.0129  2.630037
  13810.174  13810.120  0.500  1.352866  38.7916  10.0276  2.645301
  13826.563  13826.510  0.500  1.346648  38.616  10.0444  2.659426
  13843.109  13843.070  0.500  1.340742  38.4484  10.0601  2.675450
  13859.837  13859.800  0.500  1.334558  38.2534  10.0711  2.689099
  13876.750  13876.700  0.500  1.328418  38.0056  10.0675  2.698595
  13888.090  13888.060  0.500  1.324173  37.6979  10.0285  2.695781