Folder: webxdiviewer/xdidata/Pb

Note: xdidata/README.md
# bmm-standards
A pretty webpage for BMM's collection of common XAFS materials

[BMM's common materials collection](./BMM-standards.html)

Plotting of the data will happen soon.

Periodic table adapted from [some guy named Daniel](https://codepen.io/gooseofmusic/pen/PjKdNQ)

[This](https://www.coderstool.com/scss-to-css) is a helpful tool for
dealing with Sassy CSS.

File: Pb-L1-Angelsite.xdi
# XDI/1.0 BlueSky/1.10.0 BMM/2023-1.0-py310-tiled
# Beamline.name: BMM (06BM) -- Beamline for Materials Measurement (NIST)
# Beamline.xray_source: NSLS-II three-pole wiggler
# Beamline.collimation: paraboloid mirror, 5 nm Rh on 30 nm Pt
# Beamline.focusing: not in use
# Beamline.harmonic_rejection: flat mirror, Pt stripe, pitch = 7.0 mrad relative to beam
# Beamline.software: Bluesky 1.10.0, Ophyd 1.7.0, DataBroker 2.0.0b13, Python 3.10.8, 2023-1.0-py310-tiled
# Detector.I0: 10 cm N2
# Detector.I1: 25 cm N2
# Detector.I2: 25 cm N2
# Element.symbol: Pb
# Element.edge: L1
# Element.reference: Pb
# Element.reference_material: Pb foil
# Facility.name: NSLS-II
# Facility.energy: 3.0
# Facility.current: 399.9
# Facility.mode: top-off
# Facility.GUP: 301027
# Facility.SAF: 310583
# Facility.cycle: 2023-2
# Mono.name: Si(111)
# Mono.d_spacing: 3.13519
# Mono.encoder_resolution: 0.0000050 deg/ct
# Mono.angle_offset: 16.0754 deg
# Mono.scan_mode: pseudo channel cut
# Mono.scan_type: step
# Mono.direction: forward in energy
# Sample.name: PbSO4
# Sample.prep: powder on tape
# Sample.x: 143.785 mm
# Sample.y: 114.695 mm
# Sample.SDD_position: 205.000 mm
# Scan.experimenters: Bruce Ravel
# Scan.edge_energy: 15860.8
# Scan.start_time: 2023-06-23T18:21:37
# Scan.end_time: 2023-06-23T18:29:49
# Scan.transient_id: 84931
# Scan.uid: e91c4bc7-d325-42c7-80f0-5a92df860830
# Scan.plot_hint: ln(I0/It)  --  ln($5/$6)
# Column.1: energy eV
# Column.2: requested_energy eV
# Column.3: measurement_time seconds
# Column.4: xmu
# Column.5: I0 nA
# Column.6: It nA
# Column.7: Ir nA
# ///////////
# BMM standards collection
# -----------
# energy  requested_energy  measurement_time  xmu  I0  It  Ir
  15660.763  15660.800  0.500  -0.003238  24.7613  24.8416  6.957018
  15690.908  15690.800  0.500  -0.006431  24.582  24.7406  6.966492
  15720.911  15720.800  0.500  -0.009487  24.3934  24.6259  6.970099
  15750.867  15750.800  0.500  -0.012121  24.2142  24.5095  6.968888
  15780.785  15780.800  0.500  -0.014867  24.0418  24.4019  6.967845
  15810.775  15810.800  0.500  -0.016418  23.8619  24.2569  6.944298
  15832.741  15832.800  0.500  -0.015568  23.7316  24.1039  6.879161
  15838.748  15838.800  0.500  -0.014159  23.7022  24.0402  6.839392
  15844.737  15844.800  0.500  -0.011145  23.6584  23.9235  6.765030
  15850.775  15850.800  0.500  -0.004119  23.6099  23.7073  6.605245
  15851.622  15851.700  0.500  -0.002423  23.6047  23.662  6.570383
  15852.535  15852.600  0.500  -0.000269  23.602  23.6084  6.529552
  15853.449  15853.500  0.500  0.002215  23.6014  23.5492  6.481226
  15854.362  15854.400  0.500  0.005113  23.6062  23.4858  6.426328
  15855.265  15855.300  0.500  0.008134  23.5967  23.4055  6.361430
  15856.157  15856.200  0.500  0.012473  23.5974  23.3049  6.285629
  15857.048  15857.100  0.500  0.017055  23.5916  23.1927  6.198651
  15857.940  15858.000  0.500  0.022730  23.579  23.0491  6.093748
  15858.854  15858.900  0.500  0.029344  23.5708  22.8892  5.978197
  15859.758  15859.800  0.500  0.036815  23.5623  22.7106  5.852162
  15860.683  15860.700  0.500  0.045160  23.5624  22.522  5.723774
  15861.586  15861.600  0.500  0.052994  23.5528  22.3372  5.603602
  15862.490  15862.500  0.500  0.059890  23.5431  22.1745  5.502873
  15863.393  15863.400  0.500  0.065349  23.6279  22.1332  5.445704
  15864.308  15864.300  0.500  0.068666  23.6233  22.0557  5.396579
  15865.179  15865.200  0.500  0.069426  23.6172  22.0332  5.378552
  15866.082  15866.100  0.500  0.067699  23.6142  22.0685  5.386309
  15866.975  15867.000  0.500  0.063894  23.6071  22.1459  5.417110
  15867.890  15867.900  0.500  0.058762  23.6005  22.2537  5.458598
  15868.795  15868.800  0.500  0.053114  23.5942  22.3737  5.508264
  15869.699  15869.700  0.500  0.047765  23.5851  22.485  5.554348
  15870.625  15870.600  0.500  0.043092  23.582  22.5874  5.596541
  15871.508  15871.500  0.500  0.039161  23.5706  22.6654  5.627980
  15872.412  15872.400  0.500  0.036026  23.5657  22.7318  5.653541
  15873.306  15873.300  0.500  0.034149  23.555  22.7642  5.668239
  15874.211  15874.200  0.500  0.032672  23.5448  22.788  5.675008
  15875.094  15875.100  0.500  0.031817  23.5431  22.8058  5.678833
  15875.988  15876.000  0.500  0.031329  23.5366  22.8106  5.676958
  15876.893  15876.900  0.500  0.031182  23.5322  22.8098  5.673300
  15877.798  15877.800  0.500  0.031406  23.5288  22.8013  5.665279
  15878.703  15878.700  0.500  0.031805  23.522  22.7857  5.658390
  15879.620  15879.600  0.500  0.032307  23.5106  22.7632  5.650066
  15880.514  15880.500  0.500  0.032852  23.5007  22.7412  5.644181
  15881.420  15881.400  0.500  0.033519  23.4972  22.7227  5.639656
  15882.292  15882.300  0.500  0.034120  23.4929  22.7048  5.638733
  15883.220  15883.200  0.500  0.034855  23.4863  22.6818  5.638569
  15884.104  15884.100  0.500  0.035591  23.4846  22.6634  5.640521
  15884.999  15885.000  0.500  0.036277  23.4756  22.6393  5.642174
  15885.762  15885.800  0.500  0.036621  23.4711  22.6271  5.642228
  15888.845  15888.810  0.500  0.038297  23.4545  22.5733  5.646797
  15892.019  15892.000  0.500  0.038386  23.4356  22.553  5.648168
  15895.371  15895.360  0.500  0.037411  23.4164  22.5566  5.640480
  15898.868  15898.880  0.500  0.036961  23.3965  22.5475  5.626377
  15902.610  15902.580  0.500  0.036125  23.3714  22.5422  5.614042
  15906.465  15906.450  0.500  0.034960  23.3423  22.5403  5.619903
  15910.533  15910.500  0.500  0.033363  23.2478  22.485  5.624681
  15914.768  15914.710  0.500  0.032327  23.2631  22.5231  5.650892
  15919.084  15919.090  0.500  0.032177  23.2846  22.5473  5.661214
  15923.669  15923.650  0.500  0.032163  23.2546  22.5185  5.649756
  15928.412  15928.380  0.500  0.031981  23.223  22.4921  5.641154
  15933.269  15933.280  0.500  0.031773  23.19  22.4648  5.640062
  15938.351  15938.350  0.500  0.031547  23.1591  22.4399  5.642039
  15943.548  15943.590  0.500  0.031438  23.1261  22.4104  5.647418
  15949.016  15949.010  0.500  0.030729  22.9445  22.2501  5.614713
  15954.599  15954.590  0.500  0.029743  23.0657  22.3898  5.655906
  15960.298  15960.350  0.500  0.028415  23.0329  22.3876  5.658940
  15966.212  15966.280  0.500  0.027325  22.9951  22.3753  5.661827
  15972.277  15972.380  0.500  0.026558  22.9511  22.3496  5.662296
  15978.715  15978.650  0.500  0.026264  22.9046  22.3108  5.661119
  15985.136  15985.090  0.500  0.026032  22.7047  22.1213  5.622198
  15991.763  15991.700  0.500  0.025088  22.8441  22.2781  5.671031
  15998.565  15998.490  0.500  0.024467  22.8864  22.3332  5.693262
  16005.462  16005.450  0.500  0.023667  22.8412  22.307  5.694976
  16012.612  16012.570  0.500  0.022726  22.7976  22.2853  5.699626
  16019.937  16019.870  0.500  0.021717  22.7408  22.2522  5.698045
  16027.358  16027.350  0.500  0.020872  22.6153  22.1482  5.682952
  16035.024  16034.990  0.500  0.020141  22.6751  22.223  5.710179
  16042.831  16042.800  0.500  0.019124  22.6283  22.1996  5.712245
  16050.805  16050.790  0.500  0.018386  22.5857  22.1742  5.714549
  16059.001  16058.950  0.500  0.017498  22.5371  22.1462  5.717981
  16067.296  16067.270  0.500  0.016654  22.4884  22.117  5.720066
  16075.792  16075.770  0.500  0.015826  22.4  22.0482  5.712303
  16084.467  16084.450  0.500  0.014990  22.3938  22.0606  5.724473
  16093.311  16093.290  0.500  0.013791  22.3383  22.0323  5.725887
  16102.334  16102.300  0.500  0.012888  22.2827  21.9973  5.726472
  16111.493  16111.490  0.500  0.011797  22.232  21.9713  5.731681
  16120.867  16120.850  0.500  0.010800  22.1636  21.9256  5.732751
  16130.343  16130.370  0.500  0.009519  22.119  21.9095  5.739860
  16140.127  16140.070  0.500  0.008595  22.0615  21.8727  5.740217
  16149.935  16149.950  0.500  0.007482  22.005  21.841  5.744115
  16159.984  16159.990  0.500  0.006505  21.9477  21.8054  5.746244
  16170.216  16170.200  0.500  0.005254  21.8842  21.7696  5.748842
  16180.588  16180.590  0.500  0.004279  21.8295  21.7363  5.753661
  16191.192  16191.150  0.500  0.003013  21.7666  21.7012  5.755791
  16201.867  16201.880  0.500  0.001821  21.6991  21.6596  5.757011
  16212.764  16212.780  0.500  0.000637  21.6315  21.6177  5.759242
  16223.871  16223.850  0.500  -0.000543  21.5595  21.5712  5.759348
  16235.098  16235.090  0.500  -0.001827  21.4466  21.4858  5.748739
  16246.525  16246.510  0.500  -0.003066  21.4169  21.4827  5.760862
  16258.131  16258.090  0.500  -0.004184  21.3439  21.4334  5.763273
  16269.834  16269.850  0.500  -0.005431  21.2688  21.3846  5.761491
  16281.787  16281.780  0.500  -0.006681  21.1924  21.3345  5.763087
  16293.920  16293.880  0.500  -0.008048  21.1084  21.279  5.760747
  16306.165  16306.150  0.500  -0.009418  20.9768  21.1753  5.746147
  16318.591  16318.590  0.500  -0.010727  20.9571  21.1831  5.763206
  16331.236  16331.210  0.500  -0.011980  20.8877  21.1395  5.764192
  16344.017  16343.990  0.500  -0.013504  20.8013  21.0841  5.763968
  16356.935  16356.950  0.500  -0.014664  20.7324  21.0386  5.766005
  16370.109  16370.080  0.500  -0.016083  20.6386  20.9732  5.762510
  16383.422  16383.380  0.500  -0.017296  20.5793  20.9383  5.768988
  16396.874  16396.850  0.500  -0.018837  20.4974  20.8872  5.768342
  16410.503  16410.500  0.500  -0.020124  20.4287  20.844  5.772441
  16424.284  16424.310  0.500  -0.021761  20.3403  20.7878  5.772178
  16438.301  16438.300  0.500  -0.022967  20.2359  20.706  5.765420
  16452.520  16452.460  0.500  -0.024591  20.19  20.6927  5.778620
  16466.824  16466.790  0.500  -0.026014  20.1102  20.6402  5.777803
  16481.331  16481.290  0.500  -0.027416  20.0168  20.5732  5.776196
  16495.972  16495.960  0.500  -0.029133  19.9408  20.5302  5.778265
  16510.829  16510.800  0.500  -0.030395  19.8642  20.4772  5.780917
  16525.834  16525.820  0.500  -0.032050  19.774  20.418  5.779522
  16541.045  16541.000  0.500  -0.033310  19.6962  20.3633  5.781153
  16556.393  16556.360  0.500  -0.035032  19.617  20.3164  5.785022
  16571.963  16571.890  0.500  -0.036651  19.5178  20.2464  5.782200
  16587.634  16587.590  0.500  -0.037946  19.45  20.2022  5.786066
  16603.467  16603.460  0.500  -0.039612  19.354  20.1361  5.783182
  16619.562  16619.510  0.500  -0.041148  19.2564  20.0653  5.780595
  16635.809  16635.720  0.500  -0.042912  19.1791  20.02  5.783492
  16652.149  16652.110  0.500  -0.044424  19.0918  19.9591  5.783252
  16668.728  16668.670  0.500  -0.046118  18.9882  19.8844  5.777681
  16685.438  16685.400  0.500  -0.047642  18.8805  19.8018  5.772094
  16702.353  16702.300  0.500  -0.049324  18.7297  19.6766  5.753119
  16713.718  16713.660  0.500  -0.050238  17.9463  18.871  5.525105

File: Pb-L1-Cerrusite.xdi
# XDI/1.0 BlueSky/1.10.0 BMM/2023-1.0-py310-tiled
# Beamline.name: BMM (06BM) -- Beamline for Materials Measurement (NIST)
# Beamline.xray_source: NSLS-II three-pole wiggler
# Beamline.collimation: paraboloid mirror, 5 nm Rh on 30 nm Pt
# Beamline.focusing: not in use
# Beamline.harmonic_rejection: flat mirror, Pt stripe, pitch = 7.0 mrad relative to beam
# Beamline.software: Bluesky 1.10.0, Ophyd 1.7.0, DataBroker 2.0.0b13, Python 3.10.8, 2023-1.0-py310-tiled
# Detector.I0: 10 cm N2
# Detector.I1: 25 cm N2
# Detector.I2: 25 cm N2
# Element.symbol: Pb
# Element.edge: L1
# Element.reference: Pb
# Element.reference_material: Pb foil
# Facility.name: NSLS-II
# Facility.energy: 3.0
# Facility.current: 401.0
# Facility.mode: top-off
# Facility.GUP: 301027
# Facility.SAF: 310583
# Facility.cycle: 2023-2
# Mono.name: Si(111)
# Mono.d_spacing: 3.13519
# Mono.encoder_resolution: 0.0000050 deg/ct
# Mono.angle_offset: 16.0754 deg
# Mono.scan_mode: pseudo channel cut
# Mono.scan_type: step
# Mono.direction: forward in energy
# Sample.name: PbCO3
# Sample.prep: powder on tape
# Sample.x: 143.785 mm
# Sample.y: 114.695 mm
# Sample.SDD_position: 205.000 mm
# Scan.experimenters: Bruce Ravel
# Scan.edge_energy: 15860.8
# Scan.start_time: 2023-06-23T18:30:26
# Scan.end_time: 2023-06-23T18:38:45
# Scan.transient_id: 84936
# Scan.uid: e41eae72-643c-4ad5-b4e9-27742c4d792d
# Scan.plot_hint: ln(I0/It)  --  ln($5/$6)
# Column.1: energy eV
# Column.2: requested_energy eV
# Column.3: measurement_time seconds
# Column.4: xmu
# Column.5: I0 nA
# Column.6: It nA
# Column.7: Ir nA
# ///////////
# BMM standards collection
# -----------
# energy  requested_energy  measurement_time  xmu  I0  It  Ir
  15660.859  15660.800  0.500  -0.012941  24.7572  25.0796  7.004807
  15690.908  15690.800  0.500  -0.015843  24.5817  24.9743  7.012291
  15720.900  15720.800  0.500  -0.018661  24.4004  24.8601  7.017209
  15750.802  15750.800  0.500  -0.021627  24.2109  24.7402  7.016919
  15780.818  15780.800  0.500  -0.023969  24.0394  24.6226  7.011884
  15810.851  15810.800  0.500  -0.025586  23.864  24.4824  6.988791
  15832.785  15832.800  0.500  -0.024639  23.7304  24.3224  6.922454
  15838.770  15838.800  0.500  -0.023272  23.6987  24.2567  6.881450
  15844.803  15844.800  0.500  -0.020227  23.6533  24.1366  6.806022
  15850.775  15850.800  0.500  -0.013173  23.608  23.9211  6.647859
  15851.644  15851.700  0.500  -0.011589  23.6042  23.8794  6.613258
  15852.535  15852.600  0.500  -0.009472  23.6018  23.8264  6.573405
  15853.427  15853.500  0.500  -0.007223  23.5888  23.7598  6.522369
  15854.373  15854.400  0.500  -0.004311  23.5984  23.7003  6.468673
  15855.287  15855.300  0.500  -0.000924  23.5907  23.6125  6.400294
  15856.190  15856.200  0.500  0.002964  23.5887  23.5188  6.326815
  15857.081  15857.100  0.500  0.007718  23.5828  23.4015  6.236539
  15857.973  15858.000  0.500  0.013446  23.5796  23.2646  6.132950
  15858.876  15858.900  0.500  0.019950  23.5745  23.1088  6.016786
  15859.769  15859.800  0.500  0.027226  23.5734  22.9403  5.894834
  15860.661  15860.700  0.500  0.034944  23.5681  22.7588  5.769570
  15861.575  15861.600  0.500  0.042795  23.5815  22.5936  5.652087
  15862.457  15862.500  0.500  0.049524  23.5785  22.4392  5.551802
  15863.393  15863.400  0.500  0.055164  23.5756  22.3103  5.472174
  15864.275  15864.300  0.500  0.058486  23.5789  22.2394  5.425167
  15865.201  15865.200  0.500  0.059384  23.5746  22.2154  5.404938
  15866.082  15866.100  0.500  0.058175  23.5696  22.2375  5.411566
  15866.986  15867.000  0.500  0.054939  23.5691  22.3092  5.438185
  15867.901  15867.900  0.500  0.050623  23.5622  22.3991  5.477581
  15868.806  15868.800  0.500  0.045799  23.5619  22.5071  5.522501
  15869.688  15869.700  0.500  0.041136  23.5583  22.6089  5.567162
  15870.592  15870.600  0.500  0.036843  23.5511  22.6992  5.606495
  15871.486  15871.500  0.500  0.033028  23.5447  22.7797  5.639157
  15872.412  15872.400  0.500  0.030128  23.5404  22.8417  5.664278
  15873.295  15873.300  0.500  0.027886  23.5296  22.8826  5.679397
  15874.200  15874.200  0.500  0.026067  23.5246  22.9193  5.689530
  15875.116  15875.100  0.500  0.024664  23.5164  22.9435  5.696241
  15876.010  15876.000  0.500  0.023908  23.5136  22.9581  5.696494
  15876.915  15876.900  0.500  0.023194  23.5091  22.9701  5.693976
  15877.798  15877.800  0.500  0.022887  23.5069  22.975  5.691879
  15878.692  15878.700  0.500  0.022726  23.5008  22.9728  5.686509
  15879.587  15879.600  0.500  0.022747  23.4928  22.9644  5.682061
  15880.492  15880.500  0.500  0.022875  23.4849  22.9537  5.677050
  15881.376  15881.400  0.500  0.023412  23.48  22.9367  5.675098
  15882.292  15882.300  0.500  0.023850  23.4681  22.915  5.673760
  15883.198  15883.200  0.500  0.024520  23.5441  22.9738  5.694093
  15884.115  15884.100  0.500  0.025251  23.5303  22.9436  5.692301
  15885.010  15885.000  0.500  0.026149  23.5294  22.9221  5.693020
  15885.828  15885.800  0.500  0.027051  23.5229  22.8951  5.692817
  15888.845  15888.810  0.500  0.029953  23.5017  22.8082  5.687458
  15891.997  15892.000  0.500  0.031773  23.4823  22.7479  5.677054
  15895.371  15895.360  0.500  0.031501  23.4629  22.7354  5.668171
  15898.901  15898.880  0.500  0.029670  23.4404  22.7551  5.659138
  15902.588  15902.580  0.500  0.027805  23.412  22.77  5.654053
  15906.498  15906.450  0.500  0.026491  23.3873  22.7758  5.660919
  15910.544  15910.500  0.500  0.025252  23.2993  22.7183  5.664672
  15914.713  15914.710  0.500  0.023798  23.3065  22.7584  5.691558
  15919.140  15919.090  0.500  0.023211  23.3267  22.7915  5.703900
  15923.669  15923.650  0.500  0.023610  23.292  22.7485  5.689755
  15928.412  15928.380  0.500  0.024579  23.268  22.7031  5.678052
  15933.280  15933.280  0.500  0.024610  23.2346  22.6698  5.673393
  15938.373  15938.350  0.500  0.024126  23.1951  22.6422  5.676263
  15943.615  15943.590  0.500  0.023190  23.1662  22.6352  5.685734
  15948.994  15949.010  0.500  0.022459  22.9898  22.4792  5.655408
  15954.599  15954.590  0.500  0.021668  23.1058  22.6105  5.694707
  15960.331  15960.350  0.500  0.020695  23.0706  22.598  5.695308
  15966.246  15966.280  0.500  0.019580  23.0273  22.5808  5.697092
  15972.321  15972.380  0.500  0.018708  22.9849  22.5589  5.699254
  15978.894  15978.650  0.500  0.018389  22.9455  22.5275  5.700085
  15985.068  15985.090  0.500  0.017746  22.7381  22.3382  5.658960
  15991.763  15991.700  0.500  0.017097  22.8646  22.4771  5.704717
  15998.453  15998.490  0.500  0.016586  22.8153  22.44  5.703504
  16005.349  16005.450  0.500  0.015762  22.7752  22.4191  5.707207
  16012.533  16012.570  0.500  0.014979  22.7265  22.3886  5.708852
  16019.847  16019.870  0.500  0.014047  22.671  22.3547  5.709749
  16027.302  16027.350  0.500  0.013292  22.5449  22.2473  5.690895
  16034.956  16034.990  0.500  0.012160  22.6014  22.3282  5.720921
  16042.775  16042.800  0.500  0.011185  22.5591  22.3082  5.723123
  16050.737  16050.790  0.500  0.010439  22.5056  22.2719  5.722698
  16058.956  16058.950  0.500  0.009695  22.4644  22.2476  5.726077
  16067.262  16067.270  0.500  0.008983  22.4103  22.2099  5.728229
  16075.769  16075.770  0.500  0.008046  22.3286  22.1496  5.722393
  16084.445  16084.450  0.500  0.007004  22.3169  22.1611  5.733909
  16093.277  16093.290  0.500  0.006018  22.2624  22.1288  5.733730
  16102.300  16102.300  0.500  0.005127  22.2049  22.0913  5.736611
  16111.493  16111.490  0.500  0.004103  22.1574  22.0667  5.740250
  16120.833  16120.850  0.500  0.002862  22.0963  22.0332  5.742164
  16130.355  16130.370  0.500  0.001878  22.0485  22.0071  5.747861
  16140.070  16140.070  0.500  0.001088  22.0018  21.9779  5.751704
  16149.935  16149.950  0.500  -0.000009  21.937  21.9372  5.752025
  16160.006  16159.990  0.500  -0.001208  21.9039  21.9304  5.761539
  16170.182  16170.200  0.500  -0.002291  21.8381  21.8882  5.763086
  16180.600  16180.590  0.500  -0.003477  21.781  21.8569  5.767707
  16191.192  16191.150  0.500  -0.004514  21.7167  21.815  5.769320
  16201.867  16201.880  0.500  -0.005606  21.6575  21.7793  5.775100
  16212.787  16212.780  0.500  -0.006866  21.6035  21.7524  5.778190
  16223.859  16223.850  0.500  -0.007991  21.543  21.7159  5.780089
  16235.075  16235.090  0.500  -0.009193  21.436  21.634  5.772357
  16246.560  16246.510  0.500  -0.010396  21.4115  21.6353  5.786837
  16258.119  16258.090  0.500  -0.011578  21.3401  21.5886  5.787903
  16269.822  16269.850  0.500  -0.012747  21.2757  21.5487  5.791510
  16281.833  16281.780  0.500  -0.014178  21.2154  21.5183  5.795777
  16293.908  16293.880  0.500  -0.015412  21.1482  21.4767  5.796978
  16306.153  16306.150  0.500  -0.016724  21.0203  21.3748  5.783671
  16318.638  16318.590  0.500  -0.018105  20.9941  21.3776  5.798833
  16331.212  16331.210  0.500  -0.019283  20.9281  21.3356  5.802020
  16343.993  16343.990  0.500  -0.020495  20.8697  21.3019  5.808076
  16356.959  16356.950  0.500  -0.021833  20.7993  21.2584  5.809582
  16370.086  16370.080  0.500  -0.023330  20.696  21.1845  5.806261
  16383.410  16383.380  0.500  -0.024651  20.6544  21.1698  5.816199
  16396.827  16396.850  0.500  -0.026037  20.5728  21.1155  5.817353
  16410.514  16410.500  0.500  -0.027254  20.5112  21.0779  5.821134
  16424.343  16424.310  0.500  -0.028767  20.4305  21.0267  5.821765
  16438.301  16438.300  0.500  -0.030012  20.3395  20.9592  5.818680
  16452.497  16452.460  0.500  -0.031498  20.2736  20.9224  5.825187
  16466.812  16466.790  0.500  -0.033161  20.2  20.8811  5.828326
  16481.308  16481.290  0.500  -0.034531  20.1223  20.8293  5.831332
  16495.984  16495.960  0.500  -0.036002  20.0456  20.7804  5.834212
  16510.841  16510.800  0.500  -0.037481  19.9641  20.7266  5.834480
  16525.858  16525.820  0.500  -0.038909  19.8806  20.6694  5.835799
  16541.021  16541.000  0.500  -0.040419  19.7942  20.6107  5.835524
  16556.381  16556.360  0.500  -0.041896  19.7239  20.5678  5.841330
  16571.914  16571.890  0.500  -0.043593  19.6357  20.5106  5.841087
  16587.585  16587.590  0.500  -0.045040  19.5511  20.4518  5.839346
  16603.516  16603.460  0.500  -0.046452  19.4592  20.3845  5.836902
  16619.574  16619.510  0.500  -0.047965  19.3711  20.3229  5.838573
  16635.772  16635.720  0.500  -0.049580  19.2919  20.2725  5.841829
  16652.173  16652.110  0.500  -0.051268  19.1936  20.2033  5.837017
  16668.667  16668.670  0.500  -0.052813  19.0962  20.1319  5.834029
  16685.401  16685.400  0.500  -0.054365  18.9942  20.0555  5.830565
  16702.341  16702.300  0.500  -0.055969  18.8305  19.9145  5.807809
  16713.718  16713.660  0.500  -0.057267  18.0758  19.1412  5.588908