Folder: webxdiviewer/xdidata/Pr (part 4)

File: Pr-L3-PraseodymiumOxide.xdi
# XDI/1.0 BlueSky/1.10.0 BMM/2023-1.0-py310-tiled
# Beamline.name: BMM (06BM) -- Beamline for Materials Measurement (NIST)
# Beamline.xray_source: NSLS-II three-pole wiggler
# Beamline.collimation: paraboloid mirror, 5 nm Rh on 30 nm Pt
# Beamline.focusing: not in use
# Beamline.harmonic_rejection: flat mirror, Si stripe, pitch = 7.0 mrad relative to beam
# Beamline.software: Bluesky 1.10.0, Ophyd 1.7.0, DataBroker 2.0.0b13, Python 3.10.8, 2023-1.0-py310-tiled
# Detector.I0: 10 cm N2
# Detector.I1: 25 cm N2
# Detector.I2: 25 cm N2
# Element.symbol: Pr
# Element.edge: L3
# Element.reference: Pr
# Element.reference_material: Pr6O11
# Facility.name: NSLS-II
# Facility.energy: 3.0
# Facility.current: 400.9
# Facility.mode: top-off
# Facility.GUP: 301027
# Facility.SAF: 310583
# Facility.cycle: 2023-2
# Mono.name: Si(111)
# Mono.d_spacing: 3.13519
# Mono.encoder_resolution: 0.0000050 deg/ct
# Mono.angle_offset: 16.0754 deg
# Mono.scan_mode: pseudo channel cut
# Mono.scan_type: step
# Mono.direction: forward in energy
# Sample.name: Pr6O11
# Sample.prep: PEG pellet
# Sample.x: 109.138 mm
# Sample.y: 153.150 mm
# Sample.SDD_position: 205.000 mm
# Scan.experimenters: Bruce Ravel
# Scan.edge_energy: 5964.3
# Scan.start_time: 2023-05-28T11:44:47
# Scan.end_time: 2023-05-28T11:51:26
# Scan.transient_id: 78651
# Scan.uid: 61aaf1a6-e842-4f00-98bc-20d0127bd177
# Scan.plot_hint: ln(It/Ir)  --  ln($6/$7)
# Column.1: energy eV
# Column.2: requested_energy eV
# Column.3: measurement_time seconds
# Column.4: xmu
# Column.5: I0 nA
# Column.6: It nA
# Column.7: Ir nA
# ///////////
# sample courtesy Martin Stennett, University of Sheffield
# -----------
# energy  requested_energy  measurement_time  xmu  I0  It  Ir
  5764.297  5764.300  0.500  3.668682  112.296  60.268  1.537439
  5794.313  5794.300  0.500  3.613117  112.786  61.7466  1.665161
  5824.310  5824.300  0.500  3.558534  113.048  63.1814  1.799442
  5854.287  5854.300  0.500  3.505552  112.951  64.325  1.931692
  5884.288  5884.300  0.500  3.453482  112.689  65.3989  2.068915
  5914.290  5914.300  0.500  3.405648  109.474  64.7169  2.147650
  5936.294  5936.300  0.500  3.376793  111.599  66.8657  2.283919
  5942.298  5942.300  0.500  3.372836  109.487  65.8133  2.256886
  5948.296  5948.300  0.500  3.376364  112.073  67.5976  2.309908
  5954.295  5954.300  0.500  3.398047  111.54  67.5805  2.259790
  5955.188  5955.200  0.500  3.405471  111.39  67.5022  2.240479
  5956.089  5956.100  0.500  3.414972  111.313  67.4589  2.217868
  5956.991  5957.000  0.500  3.428376  111.257  67.4504  2.188062
  5957.890  5957.900  0.500  3.446477  111.193  67.4535  2.148914
  5958.794  5958.800  0.500  3.472659  111.112  67.4668  2.093791
  5959.695  5959.700  0.500  3.507613  111.069  67.4597  2.021656
  5960.591  5960.600  0.500  3.551210  110.978  67.4409  1.934874
  5961.495  5961.500  0.500  3.601497  110.865  67.3811  1.838347
  5962.396  5962.400  0.500  3.662739  110.845  67.4275  1.730333
  5963.293  5963.300  0.500  3.754190  110.831  67.4414  1.579436
  5964.198  5964.200  0.500  3.905682  110.747  67.4641  1.357866
  5965.099  5965.100  0.500  4.140753  110.705  67.4785  1.073641
  5965.992  5966.000  0.500  4.461525  110.644  67.4502  0.778696
  5966.903  5966.900  0.500  4.843514  110.574  67.4508  0.531467
  5967.795  5967.800  0.500  5.203129  110.514  67.453  0.370946
  5968.697  5968.700  0.500  5.418909  110.428  67.4549  0.298959
  5969.601  5969.600  0.500  5.462341  110.393  67.4933  0.286415
  5970.500  5970.500  0.500  5.410356  110.352  67.4332  0.301429
  5971.398  5971.400  0.500  5.336092  110.244  67.4588  0.324791
  5972.297  5972.300  0.500  5.244334  110.242  67.4515  0.355964
  5973.202  5973.200  0.500  5.119172  110.186  67.4935  0.403677
  5974.099  5974.100  0.500  4.979687  110.118  67.4781  0.463994
  5975.005  5975.000  0.500  4.855074  110.059  67.4746  0.525544
  5975.895  5975.900  0.500  4.771890  109.94  67.4128  0.570607
  5976.801  5976.800  0.500  4.730459  109.914  67.4446  0.595024
  5977.701  5977.700  0.500  4.732331  109.817  67.4356  0.593833
  5978.598  5978.600  0.500  4.765331  109.742  67.3919  0.574183
  5979.503  5979.500  0.500  4.798323  109.598  67.3428  0.555144
  5980.401  5980.400  0.500  4.796543  109.505  67.2946  0.555736
  5981.305  5981.300  0.500  4.766101  109.396  67.3205  0.573134
  5982.203  5982.200  0.500  4.718682  109.244  67.2195  0.600064
  5983.102  5983.100  0.500  4.649005  109.049  67.1767  0.642956
  5983.999  5984.000  0.500  4.562057  108.953  67.1171  0.700740
  5984.903  5984.900  0.500  4.482034  108.632  66.9778  0.757545
  5985.800  5985.800  0.500  4.421152  108.606  67.0127  0.805518
  5986.706  5986.700  0.500  4.374966  108.06  66.6799  0.839405
  5987.604  5987.600  0.500  4.341765  107.24  66.1977  0.861467
  5988.502  5988.500  0.500  4.316400  105.523  65.2239  0.870599
  5989.301  5989.300  0.500  4.299186  101.677  62.8714  0.853769
  5992.329  5992.310  0.500  4.268821  110.776  68.5989  0.960267
  5995.493  5995.500  0.500  4.299852  110.787  68.723  0.932610
  5998.862  5998.860  0.500  4.361704  110.234  68.5398  0.874337
  6002.385  6002.380  0.500  4.416573  109.899  68.4499  0.826570
  6006.084  6006.080  0.500  4.426455  109.561  68.3807  0.817614
  6009.953  6009.950  0.500  4.408855  109.254  68.3619  0.831904
  6014.007  6014.000  0.500  4.375893  108.965  68.3399  0.859504
  6018.216  6018.210  0.500  4.354738  108.684  68.2905  0.877247
  6022.594  6022.590  0.500  4.328699  108.364  68.306  0.900594
  6027.154  6027.150  0.500  4.303811  108.023  68.2182  0.922102
  6031.885  6031.880  0.500  4.290697  107.68  68.2112  0.934177
  6036.789  6036.780  0.500  4.281664  107.282  68.1277  0.941500
  6041.861  6041.850  0.500  4.272096  106.946  68.1297  0.950579
  6047.095  6047.090  0.500  4.270562  106.498  68.0019  0.950253
  6052.518  6052.510  0.500  4.272171  106.099  67.9786  0.948401
  6058.101  6058.090  0.500  4.271680  105.41  67.7439  0.945591
  6063.863  6063.850  0.500  4.272903  104.735  67.508  0.941146
  6069.786  6069.780  0.500  4.272576  104.186  67.3828  0.939707
  6075.887  6075.880  0.500  4.256238  103.642  67.2731  0.953631
  6082.158  6082.150  0.500  4.235084  102.994  67.0812  0.971242
  6088.600  6088.590  0.500  4.215790  102.389  66.919  0.987768
  6095.209  6095.200  0.500  4.207419  101.66  66.7049  0.992886
  6102.004  6101.990  0.500  4.207979  100.862  66.4191  0.988078
  6108.960  6108.950  0.500  4.198659  99.9865  66.0594  0.991927
  6116.080  6116.070  0.500  4.178737  99.1327  65.7192  1.006676
  6123.380  6123.370  0.500  4.160482  98.1621  65.3798  1.019928
  6130.873  6130.850  0.500  4.144910  97.0852  64.9269  1.028757
  6138.502  6138.490  0.500  4.135915  95.8798  64.3554  1.028916
  6146.326  6146.300  0.500  4.130669  94.6126  63.7917  1.025269
  6154.303  6154.290  0.500  4.120481  92.9756  62.9031  1.021339
  6162.465  6162.450  0.500  4.101814  91.7163  62.3421  1.031303
  6170.781  6170.770  0.500  4.082321  92.0559  62.8262  1.059769
  6179.280  6179.270  0.500  4.065762  89.6241  61.4399  1.053690
  6187.968  6187.950  0.500  4.053800  87.8503  60.5036  1.050118
  6196.804  6196.790  0.500  4.045976  86.0758  59.511  1.041005
  6205.812  6205.800  0.500  4.031560  84.2138  58.5067  1.038296
  6215.018  6214.990  0.500  4.014307  82.3118  57.4551  1.037378
  6224.351  6224.350  0.500  3.992380  80.3298  56.3294  1.039600
  6233.859  6233.870  0.500  3.979079  78.2948  55.1737  1.031904
  6243.553  6243.570  0.500  3.968798  76.3263  54.0658  1.021635
  6253.436  6253.450  0.500  3.955576  74.2059  52.8059  1.011108
  6263.477  6263.490  0.500  3.935102  72.1897  51.5904  1.008268
  6273.721  6273.700  0.500  3.912209  70.1268  50.4003  1.007819
  6284.077  6284.090  0.500  3.891771  68.1128  49.1803  1.003728
  6294.662  6294.650  0.500  3.878725  66.3015  48.1235  0.995058
  6305.368  6305.380  0.500  3.866401  64.3198  46.9277  0.982364
  6316.265  6316.280  0.500  3.847627  62.4377  45.7683  0.976251
  6327.334  6327.350  0.500  3.824910  60.4999  44.5668  0.972464
  6338.566  6338.590  0.500  3.802494  58.6428  43.4506  0.969603
  6349.994  6350.010  0.500  3.782842  56.8302  42.3092  0.962871
  6361.575  6361.590  0.500  3.768083  55.0736  41.2437  0.952576
  6373.337  6373.350  0.500  3.751522  53.3586  40.1661  0.943180
  6385.264  6385.280  0.500  3.729670  51.6732  39.1159  0.938812
  6397.359  6397.380  0.500  3.705866  50.003  38.0466  0.935144
  6409.635  6409.650  0.500  3.684238  48.3619  37.0068  0.929474
  6417.910  6417.930  0.500  3.671092  47.3553  36.3623  0.925372