Folder: webxdiviewer/xdidata/Pr

Note: xdidata/README.md
# bmm-standards
A pretty webpage for BMM's collection of common XAFS materials

[BMM's common materials collection](./BMM-standards.html)

Plotting of the data will happen soon.

Periodic table adapted from [some guy named Daniel](https://codepen.io/gooseofmusic/pen/PjKdNQ)

[This](https://www.coderstool.com/scss-to-css) is a helpful tool for
dealing with Sassy CSS.

File: Pr-L1-Pr2Ti2O7.xdi
# XDI/1.0 BlueSky/1.10.0 BMM/2023-1.0-py310-tiled
# Beamline.name: BMM (06BM) -- Beamline for Materials Measurement (NIST)
# Beamline.xray_source: NSLS-II three-pole wiggler
# Beamline.collimation: paraboloid mirror, 5 nm Rh on 30 nm Pt
# Beamline.focusing: not in use
# Beamline.harmonic_rejection: flat mirror, Si stripe, pitch = 7.0 mrad relative to beam
# Beamline.software: Bluesky 1.10.0, Ophyd 1.7.0, DataBroker 2.0.0b13, Python 3.10.8, 2023-1.0-py310-tiled
# Detector.I0: 10 cm N2
# Detector.I1: 25 cm N2
# Detector.I2: 25 cm N2
# Element.symbol: Pr
# Element.edge: L1
# Element.reference: Pr
# Element.reference_material: Pr6O11
# Facility.name: NSLS-II
# Facility.energy: 3.0
# Facility.current: 399.8
# Facility.mode: top-off
# Facility.GUP: 123456
# Facility.SAF: 301027
# Facility.cycle: 2023-2
# Mono.name: Si(111)
# Mono.d_spacing: 3.13519
# Mono.encoder_resolution: 0.0000050 deg/ct
# Mono.angle_offset: 16.0754 deg
# Mono.scan_mode: pseudo channel cut
# Mono.scan_type: step
# Mono.direction: forward in energy
# Sample.name: Pr2Ti2O7
# Sample.prep: Powder in PEG pellet
# Sample.x: 123.848 mm
# Sample.y: 114.690 mm
# Sample.SDD_position: 205.000 mm
# Scan.experimenters: Bruce Ravel
# Scan.edge_energy: 6834.8
# Scan.start_time: 2023-05-08T19:49:23
# Scan.end_time: 2023-05-08T19:55:15
# Scan.transient_id: 75554
# Scan.uid: fd81b0f3-44b2-4738-a731-fc349a068e98
# Scan.plot_hint: ln(I0/It)  --  ln($5/$6)
# Column.1: energy eV
# Column.2: requested_energy eV
# Column.3: measurement_time seconds
# Column.4: xmu
# Column.5: I0 nA
# Column.6: It nA
# Column.7: Ir nA
# ///////////
# sample courtesy Martin Stennett, University of Sheffield
# -----------
# energy  requested_energy  measurement_time  xmu  I0  It  Ir
  6634.807  6634.800  0.500  1.649115  150.892  29.0044  0.880000
  6654.814  6654.800  0.500  1.631111  151.214  29.5944  0.926830
  6674.791  6674.800  0.500  1.613569  151.465  30.1682  0.962670
  6694.808  6694.800  0.500  1.594579  151.736  30.8016  1.010525
  6714.813  6714.800  0.500  1.576437  151.978  31.4153  1.053118
  6734.816  6734.800  0.500  1.558609  152.182  32.0234  1.096611
  6754.816  6754.800  0.500  1.540885  152.402  32.6433  1.150757
  6774.809  6774.800  0.500  1.523366  152.594  33.262  1.195788
  6794.811  6794.800  0.500  1.506054  142.084  31.5118  1.156899
  6806.781  6806.800  0.500  1.496676  152.621  34.1676  1.273181
  6810.781  6810.800  0.500  1.492571  147.188  33.087  1.238111
  6814.784  6814.800  0.500  1.490461  152.434  34.3385  1.290837
  6818.894  6818.800  0.500  1.487544  152.546  34.4641  1.300964
  6822.797  6822.800  0.500  1.483783  146.064  33.1242  1.253681
  6825.293  6825.300  0.500  1.482403  151.9  34.4951  1.307447
  6826.295  6826.300  0.500  1.482076  152.201  34.5749  1.310825
  6827.289  6827.300  0.500  1.481032  152.299  34.6333  1.312542
  6828.289  6828.300  0.500  1.480377  152.333  34.6636  1.312937
  6829.290  6829.300  0.500  1.479522  152.354  34.6981  1.312296
  6830.289  6830.300  0.500  1.479273  152.356  34.7071  1.309739
  6831.288  6831.300  0.500  1.478674  152.359  34.7287  1.308140
  6832.290  6832.300  0.500  1.478387  152.358  34.7384  1.306899
  6833.296  6833.300  0.500  1.478560  152.345  34.7294  1.305577
  6834.290  6834.300  0.500  1.478659  152.336  34.7239  1.303911
  6835.295  6835.300  0.500  1.479007  152.329  34.7103  1.299750
  6836.292  6836.300  0.500  1.480041  152.33  34.6747  1.291282
  6837.295  6837.300  0.500  1.481438  152.318  34.6235  1.281310
  6838.290  6838.300  0.500  1.482604  152.115  34.537  1.268330
  6839.300  6839.300  0.500  1.483495  151.569  34.3824  1.253428
  6840.298  6840.300  0.500  1.484178  143.257  32.4747  1.175932
  6841.297  6841.300  0.500  1.486814  144.663  32.707  1.176668
  6842.293  6842.300  0.500  1.488761  150.645  33.9933  1.213480
  6843.300  6843.300  0.500  1.491372  151.316  34.0558  1.204615
  6844.302  6844.300  0.500  1.494588  152.104  34.1231  1.193357
  6845.300  6845.300  0.500  1.498421  152.245  34.0242  1.172974
  6846.294  6846.300  0.500  1.501945  152.313  33.9195  1.149777
  6847.300  6847.300  0.500  1.505104  152.357  33.8223  1.126091
  6848.300  6848.300  0.500  1.506945  152.392  33.768  1.105315
  6849.301  6849.300  0.500  1.508000  152.401  33.7343  1.087641
  6850.297  6850.300  0.500  1.507887  152.415  33.7412  1.076192
  6851.302  6851.300  0.500  1.507108  152.426  33.77  1.069388
  6852.300  6852.300  0.500  1.506416  152.43  33.7942  1.064471
  6853.298  6853.300  0.500  1.505024  152.442  33.844  1.061302
  6854.299  6854.300  0.500  1.503507  152.446  33.8962  1.058179
  6855.303  6855.300  0.500  1.501922  152.451  33.9511  1.056146
  6856.300  6856.300  0.500  1.500955  152.454  33.9847  1.054649
  6857.298  6857.300  0.500  1.499610  152.468  34.0334  1.054714
  6858.301  6858.300  0.500  1.498450  152.478  34.0751  1.054439
  6859.307  6859.300  0.500  1.496960  152.453  34.1204  1.052305
  6860.799  6860.790  0.500  1.495006  152.272  34.1465  1.046715
  6862.821  6862.810  0.500  1.492014  152.435  34.2856  1.044796
  6864.933  6864.920  0.500  1.488535  152.546  34.4301  1.054323
  6867.113  6867.100  0.500  1.485034  152.572  34.5567  1.071960
  6869.364  6869.360  0.500  1.480981  152.592  34.7016  1.092018
  6871.698  6871.690  0.500  1.477229  152.617  34.8377  1.111515
  6874.104  6874.100  0.500  1.474489  152.634  34.9372  1.128517
  6876.586  6876.580  0.500  1.472303  152.655  35.0185  1.141563
  6879.150  6879.140  0.500  1.470447  152.656  35.0839  1.152082
  6881.789  6881.780  0.500  1.468729  152.655  35.1438  1.159314
  6884.507  6884.500  0.500  1.468169  152.647  35.1618  1.163648
  6887.299  6887.290  0.500  1.467184  152.656  35.1984  1.166944
  6890.160  6890.150  0.500  1.466336  152.67  35.2316  1.169158
  6893.104  6893.090  0.500  1.465305  152.654  35.2642  1.171269
  6896.121  6896.110  0.500  1.463524  152.66  35.3284  1.173816
  6899.221  6899.210  0.500  1.461110  152.639  35.4089  1.178290
  6902.388  6902.380  0.500  1.458524  152.626  35.4977  1.184530
  6905.643  6905.630  0.500  1.455405  152.601  35.6027  1.190725
  6908.966  6908.950  0.500  1.451058  152.577  35.7522  1.198660
  6912.363  6912.350  0.500  1.446954  152.488  35.8784  1.205610
  6915.844  6915.830  0.500  1.443724  152.449  35.9852  1.213194
  6919.388  6919.380  0.500  1.440229  152.353  36.0883  1.221563
  6923.017  6923.010  0.500  1.436852  152.318  36.2021  1.232600
  6926.720  6926.710  0.500  1.434036  152.291  36.2977  1.244238
  6930.497  6930.490  0.500  1.431017  152.252  36.3982  1.255516
  6934.360  6934.350  0.500  1.428002  152.227  36.5022  1.267869
  6938.288  6938.280  0.500  1.425061  152.243  36.6136  1.281672
  6942.300  6942.290  0.500  1.421913  152.218  36.723  1.296364
  6946.389  6946.380  0.500  1.418581  152.206  36.8426  1.309317
  6950.542  6950.540  0.500  1.415572  152.176  36.9464  1.319837
  6954.786  6954.780  0.500  1.412423  152.166  37.0604  1.329471
  6959.101  6959.090  0.500  1.408419  152.138  37.2023  1.338930
  6963.487  6963.480  0.500  1.404753  152.142  37.3399  1.348377
  6967.957  6967.950  0.500  1.401303  152.127  37.4652  1.357798
  6972.493  6972.490  0.500  1.398006  152.111  37.5849  1.368310
  6977.118  6977.110  0.500  1.394716  152.079  37.7009  1.380392
[...]
  7001.359  7001.350  0.500  1.375806  151.843  38.361  1.441427
  7006.435  7006.420  0.500  1.371629  151.814  38.5143  1.454552
  7011.587  7011.570  0.500  1.367491  151.765  38.6613  1.468702
  7016.814  7016.800  0.500  1.363107  151.73  38.8223  1.484757
  7022.122  7022.110  0.500  1.358990  151.714  38.9783  1.502587
  7027.504  7027.490  0.500  1.354947  151.674  39.1259  1.520098
  7032.965  7032.950  0.500  1.351188  151.617  39.2586  1.535578
  7038.496  7038.480  0.500  1.347109  151.568  39.4062  1.550353
  7044.099  7044.090  0.500  1.343257  151.523  39.5465  1.565060
  7049.783  7049.770  0.500  1.338770  151.452  39.7058  1.579197
  7055.551  7055.540  0.500  1.334337  151.429  39.8762  1.595269
  7061.385  7061.370  0.500  1.329707  151.417  40.058  1.613125
  7067.303  7067.290  0.500  1.325156  151.28  40.2043  1.630810
  7073.291  7073.280  0.500  1.320307  151.194  40.3768  1.650658
  7079.362  7079.350  0.500  1.316251  151.126  40.5227  1.668687
  7085.504  7085.490  0.500  1.311374  150.979  40.6812  1.686543
  7091.716  7091.710  0.500  1.306733  150.939  40.8597  1.704892
  7098.014  7098.000  0.500  1.302013  150.874  41.0354  1.722083
  7104.384  7104.370  0.500  1.297199  150.789  41.21  1.740539
  7110.834  7110.820  0.500  1.292349  150.619  41.3636  1.759218
  7117.359  7117.350  0.500  1.287820  150.309  41.4659  1.776366
  7123.957  7123.950  0.500  1.282943  150.012  41.5865  1.796807
  7130.634  7130.620  0.500  1.278440  149.563  41.6491  1.814320
  7137.380  7137.370  0.500  1.273394  149.384  41.8097  1.835867
  7144.209  7144.200  0.500  1.268441  149.383  42.0169  1.857188
  7151.115  7151.110  0.500  1.263503  149.34  42.2127  1.878098
  7158.100  7158.090  0.500  1.258265  149.252  42.4094  1.899855
  7165.157  7165.150  0.500  1.253325  149.062  42.5653  1.919549
  7172.288  7172.280  0.500  1.248227  148.851  42.7222  1.941127
  7179.500  7179.490  0.500  1.243371  148.709  42.8892  1.965773
  7186.792  7186.780  0.500  1.238177  148.533  43.0617  1.990890
  7194.150  7194.140  0.500  1.233181  148.173  43.1724  2.012226
  7201.588  7201.580  0.500  1.227958  148.085  43.3727  2.037712
  7209.104  7209.090  0.500  1.222333  147.888  43.5593  2.062285
  7216.689  7216.680  0.500  1.216854  148.205  43.8925  2.093806
  7224.359  7224.350  0.500  1.211455  147.956  44.0559  2.117015
  7232.089  7232.090  0.500  1.206201  147.894  44.2693  2.144079
  7239.909  7239.910  0.500  1.200750  147.681  44.4473  2.170209
  7247.809  7247.810  0.500  1.195244  147.408  44.6103  2.197372
  7255.783  7255.780  0.500  1.189683  147.379  44.8501  2.229191
  7263.836  7263.830  0.500  1.183212  137.562  42.1343  2.111705
  7271.954  7271.950  0.500  1.178897  147.306  45.314  2.290152
  7280.160  7280.150  0.500  1.173389  147.241  45.5442  2.320597
  7288.438  7288.430  0.500  1.167787  146.923  45.701  2.347413
  7296.788  7296.780  0.500  1.162455  146.717  45.8811  2.375266
  7305.219  7305.210  0.500  1.156575  146.598  46.114  2.407307
  7313.719  7313.710  0.500  1.151048  146.305  46.277  2.437609
  7322.295  7322.290  0.500  1.145485  146.066  46.4591  2.470236
  7330.957  7330.950  0.500  1.139813  145.793  46.6362  2.500862
  7339.700  7339.690  0.500  1.134035  143.067  46.0294  2.490738
  7348.517  7348.500  0.500  1.128402  145.227  46.9881  2.564308
  7357.395  7357.380  0.500  1.122709  144.972  47.1734  2.596966
  7366.355  7366.340  0.500  1.116572  144.707  47.377  2.629616
  7375.396  7375.380  0.500  1.110684  144.434  47.5671  2.663068
  7379.960  7379.930  0.500  1.107854  144.294  47.6557  2.679784

File: Pr-L1-Pr2TiO5.xdi
# XDI/1.0 BlueSky/1.10.0 BMM/2023-1.0-py310-tiled
# Beamline.name: BMM (06BM) -- Beamline for Materials Measurement (NIST)
# Beamline.xray_source: NSLS-II three-pole wiggler
# Beamline.collimation: paraboloid mirror, 5 nm Rh on 30 nm Pt
# Beamline.focusing: not in use
# Beamline.harmonic_rejection: flat mirror, Si stripe, pitch = 7.0 mrad relative to beam
# Beamline.software: Bluesky 1.10.0, Ophyd 1.7.0, DataBroker 2.0.0b13, Python 3.10.8, 2023-1.0-py310-tiled
# Detector.I0: 10 cm N2
# Detector.I1: 25 cm N2
# Detector.I2: 25 cm N2
# Element.symbol: Pr
# Element.edge: L1
# Element.reference: Pr
# Element.reference_material: Pr6O11
# Facility.name: NSLS-II
# Facility.energy: 3.0
# Facility.current: 400.0
# Facility.mode: top-off
# Facility.GUP: 123456
# Facility.SAF: 301027
# Facility.cycle: 2023-2
# Mono.name: Si(111)
# Mono.d_spacing: 3.13519
# Mono.encoder_resolution: 0.0000050 deg/ct
# Mono.angle_offset: 16.0754 deg
# Mono.scan_mode: pseudo channel cut
# Mono.scan_type: step
# Mono.direction: forward in energy
# Sample.name: Pr2TiO5
# Sample.prep: Powder in PEG pellet
# Sample.x: 149.848 mm
# Sample.y: 114.690 mm
# Sample.SDD_position: 205.000 mm
# Scan.experimenters: Bruce Ravel
# Scan.edge_energy: 6834.8
# Scan.start_time: 2023-05-08T20:02:53
# Scan.end_time: 2023-05-08T20:08:50
# Scan.transient_id: 75564
# Scan.uid: 6aa98774-e54b-418d-b6aa-671c3be0bbc0
# Scan.plot_hint: ln(I0/It)  --  ln($5/$6)
# Column.1: energy eV
# Column.2: requested_energy eV
# Column.3: measurement_time seconds
# Column.4: xmu
# Column.5: I0 nA
# Column.6: It nA
# Column.7: Ir nA
# ///////////
# sample courtesy Martin Stennett, University of Sheffield
# -----------
# energy  requested_energy  measurement_time  xmu  I0  It  Ir
  6634.803  6634.800  0.500  2.069936  150.981  19.0529  0.581035
  6654.815  6654.800  0.500  2.051025  151.221  19.4475  0.611922
  6674.829  6674.800  0.500  2.031789  151.498  19.8615  0.636492
  6694.825  6694.800  0.500  2.011756  151.77  20.2999  0.669162
  6714.818  6714.800  0.500  1.992999  151.996  20.715  0.697376
  6734.812  6734.800  0.500  1.974255  152.217  21.1376  0.727306
  6754.812  6754.800  0.500  1.955280  152.413  21.5702  0.763645
  6774.809  6774.800  0.500  1.937143  152.609  21.9932  0.794311
  6794.774  6794.800  0.500  1.918429  146.411  21.4987  0.794149
  6806.779  6806.800  0.500  1.908055  152.545  22.633  0.846753
  6810.783  6810.800  0.500  1.904302  146.902  21.8776  0.822433
  6814.802  6814.800  0.500  1.901146  152.387  22.7662  0.859579
  6818.798  6818.800  0.500  1.897694  152.533  22.8669  0.866572
  6822.795  6822.800  0.500  1.894219  146.042  21.97  0.835070
  6825.289  6825.300  0.500  1.892461  151.942  22.8977  0.871417
  6826.285  6826.300  0.500  1.891599  152.265  22.9661  0.874033
  6827.289  6827.300  0.500  1.891111  152.373  22.9937  0.874829
  6828.287  6828.300  0.500  1.890582  152.428  23.0142  0.875656
  6829.286  6829.300  0.500  1.889884  152.466  23.0361  0.874982
  6830.287  6830.300  0.500  1.889128  152.485  23.0563  0.873752
  6831.290  6831.300  0.500  1.888472  152.498  23.0734  0.872273
  6832.292  6832.300  0.500  1.888073  152.514  23.0851  0.872192
  6833.294  6833.300  0.500  1.887881  152.52  23.0903  0.871679
  6834.294  6834.300  0.500  1.887461  152.537  23.1026  0.870641
  6835.299  6835.300  0.500  1.887906  152.54  23.0927  0.868128
  6836.296  6836.300  0.500  1.888179  152.545  23.0872  0.863352
  6837.291  6837.300  0.500  1.888827  153.163  23.1657  0.860386
  6838.294  6838.300  0.500  1.889587  152.941  23.1147  0.852339
  6839.304  6839.300  0.500  1.890399  152.381  23.0113  0.842363
  6840.298  6840.300  0.500  1.890318  143.87  21.7278  0.789580
  6841.295  6841.300  0.500  1.890975  145.812  22.0066  0.794901
  6842.301  6842.300  0.500  1.891673  151.538  22.8549  0.819162
  6843.300  6843.300  0.500  1.892540  152.191  22.9335  0.814389
  6844.300  6844.300  0.500  1.893867  152.429  22.9389  0.805153
  6845.298  6845.300  0.500  1.895315  152.541  22.9225  0.793495
  6846.300  6846.300  0.500  1.897257  152.615  22.8891  0.778721
  6847.300  6847.300  0.500  1.898118  152.652  22.8749  0.764724
  6848.296  6848.300  0.500  1.898972  152.673  22.8586  0.750761
  6849.295  6849.300  0.500  1.899743  152.687  22.843  0.739468
  6850.299  6850.300  0.500  1.900261  152.701  22.8333  0.731186
  6851.306  6851.300  0.500  1.899928  152.718  22.8435  0.726419
  6852.298  6852.300  0.500  1.899064  152.73  22.865  0.722888
  6853.294  6853.300  0.500  1.898308  152.732  22.8825  0.720357
  6854.301  6854.300  0.500  1.897572  152.729  22.899  0.717470
  6855.295  6855.300  0.500  1.896842  152.75  22.9189  0.715504
  6856.300  6856.300  0.500  1.896229  152.755  22.9336  0.714588
  6857.304  6857.300  0.500  1.895766  152.754  22.9442  0.713849
  6858.301  6858.300  0.500  1.895452  152.762  22.9526  0.712832
  6859.299  6859.300  0.500  1.894111  152.737  22.9796  0.711656
  6860.801  6860.790  0.500  1.892478  152.554  22.9896  0.707358
  6862.819  6862.810  0.500  1.889755  152.715  23.0765  0.705809
  6864.939  6864.920  0.500  1.886346  152.826  23.1723  0.712774
  6867.117  6867.100  0.500  1.882099  152.856  23.2753  0.725070
  6869.368  6869.360  0.500  1.878027  152.872  23.3729  0.738042
  6871.704  6871.690  0.500  1.874838  152.888  23.4499  0.751184
  6874.104  6874.100  0.500  1.872610  152.905  23.5048  0.762226
  6876.590  6876.580  0.500  1.870475  152.928  23.5586  0.770836
  6879.152  6879.140  0.500  1.868755  152.926  23.5989  0.777757
  6881.793  6881.780  0.500  1.867085  152.933  23.6394  0.782845
  6884.503  6884.500  0.500  1.864957  152.921  23.6879  0.786555
  6887.301  6887.290  0.500  1.863219  152.934  23.7312  0.789630
  6890.160  6890.150  0.500  1.861247  152.939  23.7787  0.792206
  6893.100  6893.090  0.500  1.859487  152.936  23.8202  0.793979
  6896.115  6896.110  0.500  1.857907  152.948  23.8597  0.795478
  6899.211  6899.210  0.500  1.855727  152.939  23.9104  0.798934
  6902.380  6902.380  0.500  1.853006  152.927  23.9736  0.803006
  6905.631  6905.630  0.500  1.849645  152.904  24.0507  0.807587
  6908.954  6908.950  0.500  1.847119  152.872  24.1065  0.811437
  6912.357  6912.350  0.500  1.843781  152.784  24.1732  0.815843
  6915.836  6915.830  0.500  1.840436  152.741  24.2473  0.820596
  6919.390  6919.380  0.500  1.837169  152.653  24.3127  0.826385
  6923.019  6923.010  0.500  1.833299  152.624  24.4023  0.834244
  6926.720  6926.710  0.500  1.829859  152.586  24.4803  0.842156
  6930.495  6930.490  0.500  1.826669  152.563  24.5548  0.850444
  6934.360  6934.350  0.500  1.823005  152.542  24.6415  0.858981
  6938.290  6938.280  0.500  1.819452  152.545  24.7298  0.869140
  6942.294  6942.290  0.500  1.816435  152.532  24.8024  0.879161
  6946.385  6946.380  0.500  1.813108  152.505  24.8806  0.887641
  6950.546  6950.540  0.500  1.809605  152.478  24.9634  0.895091
  6954.792  6954.780  0.500  1.806468  152.463  25.0395  0.901707
  6959.101  6959.090  0.500  1.803038  152.436  25.121  0.907694
  6963.493  6963.480  0.500  1.799953  152.427  25.1972  0.913434
  6967.955  6967.950  0.500  1.796487  152.43  25.2852  0.919260
  6972.503  6972.490  0.500  1.792350  152.408  25.3863  0.927366
  6977.126  6977.110  0.500  1.788107  152.363  25.4868  0.936706
[...]
  7001.365  7001.350  0.500  1.767902  152.169  25.9738  0.979695
  7006.429  7006.420  0.500  1.763799  152.13  26.0739  0.988496
  7011.587  7011.570  0.500  1.759839  152.078  26.1685  0.997590
  7016.814  7016.800  0.500  1.755113  152.045  26.2867  1.009050
  7022.131  7022.110  0.500  1.750785  152.013  26.3951  1.021799
  7027.493  7027.490  0.500  1.747113  151.975  26.4857  1.033026
  7032.965  7032.950  0.500  1.742471  151.9  26.5958  1.044521
  7038.494  7038.480  0.500  1.738255  151.861  26.7013  1.054131
  7044.103  7044.090  0.500  1.733676  151.814  26.8155  1.064826
  7049.781  7049.770  0.500  1.729193  151.736  26.9221  1.074778
  7055.551  7055.540  0.500  1.724517  151.698  27.0416  1.085588
  7061.389  7061.370  0.500  1.719946  151.687  27.1634  1.097810
  7067.301  7067.290  0.500  1.715070  151.542  27.2701  1.110083
  7073.296  7073.280  0.500  1.710540  151.457  27.3787  1.122992
  7079.362  7079.350  0.500  1.705122  151.383  27.5139  1.137203
  7085.504  7085.490  0.500  1.700494  151.223  27.6124  1.148873
  7091.718  7091.710  0.500  1.695568  151.187  27.7421  1.161090
  7098.012  7098.000  0.500  1.690462  151.127  27.873  1.174239
  7104.384  7104.370  0.500  1.685569  151.047  27.9948  1.186590
  7110.832  7110.820  0.500  1.680381  150.862  28.1061  1.199522
  7117.357  7117.350  0.500  1.675109  150.531  28.1926  1.212349
  7123.961  7123.950  0.500  1.670381  150.21  28.2658  1.225712
  7130.632  7130.620  0.500  1.665551  149.758  28.3172  1.237382
  7137.383  7137.370  0.500  1.660213  149.593  28.4374  1.252768
  7144.212  7144.200  0.500  1.655192  149.561  28.5745  1.267564
  7151.121  7151.110  0.500  1.650098  149.514  28.7114  1.282141
  7158.100  7158.090  0.500  1.644914  149.428  28.8439  1.296405
  7165.159  7165.150  0.500  1.639542  149.759  29.0636  1.315285
  7172.288  7172.280  0.500  1.633902  149.555  29.1882  1.331363
  7179.500  7179.490  0.500  1.628356  149.396  29.3193  1.348926
  7186.790  7186.780  0.500  1.623258  149.237  29.4377  1.365093
  7194.144  7194.140  0.500  1.617401  148.872  29.5382  1.381409
  7201.584  7201.580  0.500  1.612292  148.777  29.6706  1.398025
  7209.095  7209.090  0.500  1.606390  148.529  29.7964  1.415578
  7216.687  7216.680  0.500  1.601140  148.283  29.9036  1.431639
  7224.359  7224.350  0.500  1.595363  148.041  30.028  1.448210
  7232.095  7232.090  0.500  1.589636  147.96  30.1838  1.467013
  7239.915  7239.910  0.500  1.583871  147.743  30.3138  1.485054
  7247.813  7247.810  0.500  1.579158  147.439  30.3944  1.501709
  7255.790  7255.780  0.500  1.572935  147.423  30.5808  1.524799
  7263.838  7263.830  0.500  1.566536  137.056  28.6128  1.438342
  7271.963  7271.950  0.500  1.561083  147.31  30.9217  1.568063
  7280.162  7280.150  0.500  1.555233  147.258  31.0921  1.588869
  7288.438  7288.430  0.500  1.549469  146.923  31.2007  1.607849
  7296.811  7296.780  0.500  1.543625  146.708  31.3376  1.627933
  7305.222  7305.210  0.500  1.537625  146.589  31.5005  1.649479
  7313.725  7313.710  0.500  1.531305  146.312  31.6405  1.672351
  7322.311  7322.290  0.500  1.525326  146.056  31.7744  1.694320
  7330.973  7330.950  0.500  1.519118  145.789  31.914  1.717140
  7339.683  7339.690  0.500  1.513373  143.19  31.5255  1.711319
  7348.484  7348.500  0.500  1.506896  145.213  32.1787  1.762094
  7357.379  7357.380  0.500  1.500932  144.955  32.3138  1.784504
  7366.327  7366.340  0.500  1.494689  144.672  32.4525  1.806636
  7375.366  7375.380  0.500  1.488688  144.412  32.5893  1.829886
  7379.921  7379.930  0.500  1.485611  144.255  32.6542  1.842070