Folder: webxdiviewer/xdidata/Pr (part 2)

File: Pr-L1-Pr-hydroxide.xdi
# XDI/1.0 BlueSky/1.10.0 BMM/2023-1.0-py310-tiled
# Beamline.name: BMM (06BM) -- Beamline for Materials Measurement (NIST)
# Beamline.xray_source: NSLS-II three-pole wiggler
# Beamline.collimation: paraboloid mirror, 5 nm Rh on 30 nm Pt
# Beamline.focusing: not in use
# Beamline.harmonic_rejection: flat mirror, Si stripe, pitch = 7.0 mrad relative to beam
# Beamline.software: Bluesky 1.10.0, Ophyd 1.7.0, DataBroker 2.0.0b13, Python 3.10.8, 2023-1.0-py310-tiled
# Detector.I0: 10 cm N2
# Detector.I1: 25 cm N2
# Detector.I2: 25 cm N2
# Element.symbol: Pr
# Element.edge: L1
# Element.reference: Pr
# Element.reference_material: Pr6O11
# Facility.name: NSLS-II
# Facility.energy: 3.0
# Facility.current: 400.1
# Facility.mode: top-off
# Facility.GUP: 123456
# Facility.SAF: 301027
# Facility.cycle: 2023-2
# Mono.name: Si(111)
# Mono.d_spacing: 3.13519
# Mono.encoder_resolution: 0.0000050 deg/ct
# Mono.angle_offset: 16.0754 deg
# Mono.scan_mode: pseudo channel cut
# Mono.scan_type: step
# Mono.direction: forward in energy
# Sample.name: Pr(OH)3
# Sample.prep: Powder in PEG pellet
# Sample.x: 123.848 mm
# Sample.y: 114.690 mm
# Sample.SDD_position: 205.000 mm
# Scan.experimenters: Bruce Ravel
# Scan.edge_energy: 6834.8
# Scan.start_time: 2023-05-08T19:55:54
# Scan.end_time: 2023-05-08T20:02:01
# Scan.transient_id: 75559
# Scan.uid: 63d65815-5993-4887-8b9f-388c0bd5ba89
# Scan.plot_hint: ln(I0/It)  --  ln($5/$6)
# Column.1: energy eV
# Column.2: requested_energy eV
# Column.3: measurement_time seconds
# Column.4: xmu
# Column.5: I0 nA
# Column.6: It nA
# Column.7: Ir nA
# ///////////
# sample courtesy Martin Stennett, University of Sheffield
# -----------
# energy  requested_energy  measurement_time  xmu  I0  It  Ir
  6634.801  6634.800  0.500  3.865634  151.018  3.163766  0.096680
  6654.817  6654.800  0.500  3.835066  151.319  3.268472  0.103080
  6674.801  6674.800  0.500  3.807854  151.575  3.364316  0.108185
  6694.821  6694.800  0.500  3.768941  151.834  3.503787  0.115777
  6714.813  6714.800  0.500  3.739285  152.075  3.614988  0.121847
  6734.814  6734.800  0.500  3.713219  152.303  3.716017  0.128141
  6754.808  6754.800  0.500  3.679091  152.483  3.849571  0.136592
  6774.811  6774.800  0.500  3.651614  152.667  3.961594  0.143263
  6794.780  6794.800  0.500  3.622317  142.211  3.799988  0.140425
  6806.955  6806.800  0.500  3.604091  152.563  4.151562  0.155651
  6811.100  6810.800  0.500  3.598919  144.497  3.952471  0.148827
  6814.794  6814.800  0.500  3.594412  152.284  4.184273  0.158261
  6818.796  6818.800  0.500  3.590445  152.415  4.204526  0.159723
  6822.797  6822.800  0.500  3.587151  145.962  4.039791  0.153698
  6825.281  6825.300  0.500  3.585067  151.808  4.210360  0.160457
  6826.283  6826.300  0.500  3.584735  152.118  4.220364  0.160955
  6827.285  6827.300  0.500  3.584571  152.216  4.223764  0.160932
  6828.289  6828.300  0.500  3.584966  152.264  4.223445  0.160726
  6829.284  6829.300  0.500  3.585193  152.277  4.222854  0.160473
  6830.285  6830.300  0.500  3.585307  152.299  4.222963  0.160388
  6831.288  6831.300  0.500  3.586202  152.308  4.219450  0.159821
  6832.296  6832.300  0.500  3.587814  152.317  4.212888  0.159296
  6833.290  6833.300  0.500  3.589845  152.324  4.204542  0.159034
  6834.294  6834.300  0.500  3.593646  152.328  4.188708  0.158309
  6835.299  6835.300  0.500  3.600179  152.319  4.161178  0.156669
  6836.298  6836.300  0.500  3.610665  152.324  4.117915  0.154152
  6837.295  6837.300  0.500  3.624557  152.312  4.060778  0.151315
  6838.294  6838.300  0.500  3.636943  152.112  4.005519  0.148011
  6839.302  6839.300  0.500  3.646509  151.548  3.952668  0.144887
  6840.296  6840.300  0.500  3.655517  143.135  3.699771  0.134790
  6841.295  6841.300  0.500  3.667780  144.938  3.700710  0.133983
  6842.295  6842.300  0.500  3.685920  150.701  3.778687  0.135469
  6843.304  6843.300  0.500  3.709504  151.942  3.721013  0.132243
  6844.306  6844.300  0.500  3.740004  152.164  3.614505  0.127188
  6845.296  6845.300  0.500  3.776790  152.289  3.486822  0.120935
  6846.296  6846.300  0.500  3.820285  152.351  3.339769  0.113837
  6847.300  6847.300  0.500  3.866752  152.394  3.189026  0.106867
  6848.295  6848.300  0.500  3.909604  152.424  3.055870  0.100717
  6849.299  6849.300  0.500  3.945546  152.448  2.948440  0.095615
  6850.303  6850.300  0.500  3.968241  152.462  2.882547  0.092546
  6851.302  6851.300  0.500  3.975705  152.478  2.861413  0.091228
  6852.298  6852.300  0.500  3.969834  152.481  2.878318  0.091089
  6853.298  6853.300  0.500  3.955031  152.492  2.921456  0.092200
  6854.305  6854.300  0.500  3.934820  152.5  2.981263  0.093722
  6855.297  6855.300  0.500  3.914459  152.508  3.042738  0.095273
  6856.304  6856.300  0.500  3.894692  152.52  3.103728  0.097069
  6857.302  6857.300  0.500  3.879033  152.537  3.153063  0.098531
  6858.296  6858.300  0.500  3.866010  152.555  3.194762  0.099463
  6859.299  6859.300  0.500  3.857623  152.532  3.221187  0.099987
  6860.799  6860.790  0.500  3.847492  152.345  3.250009  0.100325
  6862.815  6862.810  0.500  3.833907  152.508  3.297987  0.101114
  6864.933  6864.920  0.500  3.815649  152.621  3.361233  0.103503
  6867.117  6867.100  0.500  3.793827  152.655  3.436154  0.107474
  6869.366  6869.360  0.500  3.773618  152.677  3.506800  0.111081
  6871.702  6871.690  0.500  3.758954  152.706  3.559296  0.114276
  6874.110  6874.100  0.500  3.749964  152.721  3.591772  0.116690
  6876.592  6876.580  0.500  3.746879  152.742  3.603374  0.118241
  6879.154  6879.140  0.500  3.751355  152.755  3.587581  0.118654
  6881.789  6881.780  0.500  3.764415  152.753  3.540996  0.117567
  6884.511  6884.500  0.500  3.777744  152.742  3.493847  0.116362
  6887.303  6887.290  0.500  3.785235  152.747  3.467890  0.115970
  6890.164  6890.150  0.500  3.789205  152.767  3.454614  0.115474
  6893.106  6893.090  0.500  3.789197  152.761  3.454505  0.115521
  6896.115  6896.110  0.500  3.788305  152.778  3.457977  0.115736
  6899.215  6899.210  0.500  3.786366  152.773  3.464556  0.115935
  6902.386  6902.380  0.500  3.779866  152.757  3.486787  0.117273
  6905.635  6905.630  0.500  3.769039  152.734  3.524212  0.118753
  6908.958  6908.950  0.500  3.752674  152.709  3.581780  0.120685
  6912.361  6912.350  0.500  3.734351  152.614  3.645757  0.123259
  6915.840  6915.830  0.500  3.718847  152.575  3.701753  0.125531
  6919.390  6919.380  0.500  3.707553  152.492  3.741768  0.127485
  6923.019  6923.010  0.500  3.699794  152.462  3.770181  0.129168
  6926.714  6926.710  0.500  3.695401  152.44  3.786238  0.130817
  6930.499  6930.490  0.500  3.694033  152.408  3.790621  0.131475
  6934.364  6934.350  0.500  3.694189  152.389  3.789559  0.132349
  6938.294  6938.280  0.500  3.693957  152.402  3.790748  0.133475
  6942.302  6942.290  0.500  3.688608  152.383  3.810616  0.135264
  6946.389  6946.380  0.500  3.681456  152.351  3.837147  0.137006
  6950.550  6950.540  0.500  3.673522  152.324  3.867044  0.138848
  6954.792  6954.780  0.500  3.667685  152.321  3.889594  0.140222
  6959.103  6959.090  0.500  3.662782  152.293  3.908000  0.141393
  6963.493  6963.480  0.500  3.658120  152.292  3.926225  0.142633
  6967.966  6967.950  0.500  3.652950  152.279  3.946235  0.143853
[...]
  7006.429  7006.420  0.500  3.590984  152.01  4.191107  0.158937
  7011.583  7011.570  0.500  3.585933  151.945  4.210508  0.160773
  7016.808  7016.800  0.500  3.580144  151.912  4.234054  0.162832
  7022.118  7022.110  0.500  3.571966  151.893  4.268290  0.165422
  7027.498  7027.490  0.500  3.562517  151.846  4.307456  0.168123
  7032.963  7032.950  0.500  3.554311  151.794  4.341466  0.170743
  7038.486  7038.480  0.500  3.546216  151.748  4.375429  0.172937
  7044.103  7044.090  0.500  3.537798  151.703  4.411114  0.175545
  7049.781  7049.770  0.500  3.530173  151.633  4.442829  0.177493
  7055.551  7055.540  0.500  3.521845  151.58  4.478421  0.180041
  7061.385  7061.370  0.500  3.512560  151.572  4.519939  0.182831
  7067.297  7067.290  0.500  3.502687  151.427  4.560436  0.186087
  7073.291  7073.280  0.500  3.492278  151.338  4.605421  0.189090
  7079.364  7079.350  0.500  3.482209  151.261  4.649687  0.192148
  7085.501  7085.490  0.500  3.472960  151.107  4.688100  0.195273
  7091.720  7091.710  0.500  3.465120  151.073  4.723943  0.197966
  7098.014  7098.000  0.500  3.457541  151.011  4.757912  0.200709
  7104.380  7104.370  0.500  3.450277  150.927  4.789954  0.203201
  7110.828  7110.820  0.500  3.441897  150.754  4.824710  0.206244
  7117.359  7117.350  0.500  3.433005  150.425  4.857196  0.209036
  7123.963  7123.950  0.500  3.422547  150.112  4.898026  0.212415
  7130.630  7130.620  0.500  3.412105  149.658  4.934468  0.215881
  7137.378  7137.370  0.500  3.402173  149.495  4.978301  0.219471
  7144.209  7144.200  0.500  3.393196  149.466  5.022243  0.222938
  7151.115  7151.110  0.500  3.383992  149.42  5.067119  0.226765
  7158.097  7158.090  0.500  3.374946  149.315  5.109567  0.229787
  7165.155  7165.150  0.500  3.364666  149.122  5.155666  0.233350
  7172.284  7172.280  0.500  3.354756  148.912  5.199706  0.237258
  7179.498  7179.490  0.500  3.344278  148.754  5.248887  0.241685
  7186.790  7186.780  0.500  3.333026  148.589  5.302378  0.246158
  7194.142  7194.140  0.500  3.322370  148.763  5.365459  0.251163
  7201.582  7201.580  0.500  3.312921  148.67  5.413019  0.255193
  7209.093  7209.090  0.500  3.303466  148.421  5.455287  0.259432
  7216.687  7216.680  0.500  3.293485  148.19  5.501436  0.263517
  7224.357  7224.350  0.500  3.283374  147.949  5.548319  0.267720
  7232.095  7232.090  0.500  3.273101  147.868  5.602521  0.272415
  7239.918  7239.910  0.500  3.262215  147.658  5.655802  0.277100
  7247.818  7247.810  0.500  3.250960  147.369  5.708648  0.282166
  7255.790  7255.780  0.500  3.239484  147.348  5.773684  0.287825
  7263.838  7263.830  0.500  3.229878  137.063  5.422514  0.272600
  7271.957  7271.950  0.500  3.218442  147.253  5.892665  0.298771
  7280.162  7280.150  0.500  3.208087  147.179  5.951031  0.304307
  7288.440  7288.430  0.500  3.197132  146.851  6.003146  0.309447
  7296.793  7296.780  0.500  3.186469  146.641  6.058844  0.314712
  7305.231  7305.210  0.500  3.174987  146.515  6.123547  0.320719
  7313.725  7313.710  0.500  3.164041  146.255  6.179968  0.326651
  7322.304  7322.290  0.500  3.152313  145.988  6.241448  0.332819
  7330.964  7330.950  0.500  3.141317  145.738  6.299664  0.339012
  7339.725  7339.690  0.500  3.129468  143.102  6.259425  0.339621
  7348.535  7348.500  0.500  3.118778  145.164  6.417869  0.351548
  7357.406  7357.380  0.500  3.107389  144.898  6.479501  0.357527
  7366.357  7366.340  0.500  3.095823  144.623  6.542417  0.364154
  7375.389  7375.380  0.500  3.084485  144.348  6.604427  0.370704
  7379.918  7379.930  0.500  3.078595  144.201  6.636710  0.374401

File: Pr-L1-PraseodymiumOxide.xdi
# XDI/1.0 BlueSky/1.10.0 BMM/2023-1.0-py310-tiled
# Beamline.name: BMM (06BM) -- Beamline for Materials Measurement (NIST)
# Beamline.xray_source: NSLS-II three-pole wiggler
# Beamline.collimation: paraboloid mirror, 5 nm Rh on 30 nm Pt
# Beamline.focusing: not in use
# Beamline.harmonic_rejection: flat mirror, Si stripe, pitch = 7.0 mrad relative to beam
# Beamline.software: Bluesky 1.10.0, Ophyd 1.7.0, DataBroker 2.0.0b13, Python 3.10.8, 2023-1.0-py310-tiled
# Detector.I0: 10 cm N2
# Detector.I1: 25 cm N2
# Detector.I2: 25 cm N2
# Element.symbol: Pr
# Element.edge: L1
# Element.reference: Pr
# Element.reference_material: Pr6O11
# Facility.name: NSLS-II
# Facility.energy: 3.0
# Facility.current: 399.3
# Facility.mode: top-off
# Facility.GUP: 301027
# Facility.SAF: 310583
# Facility.cycle: 2023-2
# Mono.name: Si(111)
# Mono.d_spacing: 3.13519
# Mono.encoder_resolution: 0.0000050 deg/ct
# Mono.angle_offset: 16.0754 deg
# Mono.scan_mode: pseudo channel cut
# Mono.scan_type: step
# Mono.direction: forward in energy
# Sample.name: Pr6O11
# Sample.prep: PEG pellet
# Sample.x: 109.138 mm
# Sample.y: 153.150 mm
# Sample.SDD_position: 205.000 mm
# Scan.experimenters: Bruce Ravel
# Scan.edge_energy: 6834.8
# Scan.start_time: 2023-05-28T12:57:03
# Scan.end_time: 2023-05-28T13:04:56
# Scan.transient_id: 78700
# Scan.uid: 9b1d83a5-1b2c-460e-ab96-64fd5aa97cf1
# Scan.plot_hint: ln(It/Ir)  --  ln($6/$7)
# Column.1: energy eV
# Column.2: requested_energy eV
# Column.3: measurement_time seconds
# Column.4: xmu
# Column.5: I0 nA
# Column.6: It nA
# Column.7: Ir nA
# ///////////
# sample courtesy Martin Stennett, University of Sheffield
# -----------
# energy  requested_energy  measurement_time  xmu  I0  It  Ir
  6634.801  6634.800  0.500  3.839960  152.209  127.865  2.748384
  6664.851  6664.800  0.500  3.793769  152.698  129.711  2.919864
  6694.806  6694.800  0.500  3.752668  153.662  132.058  3.097432
  6724.810  6724.800  0.500  3.718009  154.054  133.828  3.249658
  6754.810  6754.800  0.500  3.671988  154.394  135.594  3.447602
  6784.794  6784.800  0.500  3.638661  154.842  137.462  3.613522
  6806.797  6806.800  0.500  3.609171  154.868  138.541  3.750892
  6812.794  6812.800  0.500  3.601490  153.382  137.47  3.750590
  6818.794  6818.800  0.500  3.594652  154.9  139.111  3.821424
  6824.795  6824.800  0.500  3.589870  153.328  138.014  3.809460
  6825.682  6825.700  0.500  3.589577  154.344  138.979  3.837223
  6826.582  6826.600  0.500  3.589311  154.601  139.238  3.845370
  6827.486  6827.500  0.500  3.589397  154.701  139.441  3.850655
  6828.388  6828.400  0.500  3.589755  154.74  139.472  3.850151
  6829.292  6829.300  0.500  3.590892  154.767  139.493  3.846350
  6830.184  6830.200  0.500  3.592822  154.79  139.571  3.841064
  6831.095  6831.100  0.500  3.594790  154.801  139.668  3.836176
  6831.996  6832.000  0.500  3.595839  154.798  139.706  3.833216
  6832.897  6832.900  0.500  3.596514  154.808  139.71  3.830720
  6833.791  6833.800  0.500  3.597123  154.808  139.802  3.830911
  6834.693  6834.700  0.500  3.598655  154.822  139.863  3.826728
  6835.601  6835.600  0.500  3.601499  154.819  139.904  3.816973
  6836.501  6836.500  0.500  3.606211  154.81  139.923  3.799536
  6837.397  6837.400  0.500  3.612271  154.786  139.926  3.776662
  6838.302  6838.300  0.500  3.618805  154.607  139.832  3.749548
  6839.199  6839.200  0.500  3.625599  154.133  139.485  3.714924
  6840.099  6840.100  0.500  3.631573  149.282  135.084  3.576289
  6840.994  6841.000  0.500  3.637766  143.002  129.453  3.406033
  6841.902  6841.900  0.500  3.644127  152.057  137.682  3.599595
  6842.802  6842.800  0.500  3.651774  153.6  139.122  3.609537
  6843.696  6843.700  0.500  3.660100  153.962  139.48  3.588816
  6844.601  6844.600  0.500  3.670864  154.145  139.684  3.555578
  6845.502  6845.500  0.500  3.684025  154.229  139.831  3.512793
  6846.403  6846.400  0.500  3.699806  154.294  139.943  3.460549
  6847.298  6847.300  0.500  3.715905  154.338  139.993  3.406517
  6848.201  6848.200  0.500  3.732113  154.362  140.075  3.353701
  6849.103  6849.100  0.500  3.746154  154.381  140.126  3.308153
  6849.997  6850.000  0.500  3.757295  154.378  140.158  3.272247
  6850.899  6850.900  0.500  3.765299  154.371  140.208  3.247302
  6851.804  6851.800  0.500  3.771133  154.356  140.23  3.228940
  6852.701  6852.700  0.500  3.775756  154.333  140.283  3.215258
  6853.598  6853.600  0.500  3.779610  154.324  140.298  3.203215
  6854.497  6854.500  0.500  3.783479  154.324  140.367  3.192437
  6855.403  6855.400  0.500  3.786391  154.334  140.379  3.183414
  6856.300  6856.300  0.500  3.788645  154.301  140.444  3.177714
  6857.198  6857.200  0.500  3.789665  154.312  140.435  3.174267
  6858.103  6858.100  0.500  3.791389  154.289  140.429  3.168674
  6859.003  6859.000  0.500  3.793352  154.256  140.501  3.164082
  6859.799  6859.800  0.500  3.796143  154.245  140.514  3.155555
  6862.823  6862.810  0.500  3.806991  154.194  140.613  3.123710
  6866.013  6866.000  0.500  3.795890  154.369  140.968  3.166543
  6869.374  6869.360  0.500  3.774087  154.616  141.361  3.245368
  6872.888  6872.880  0.500  3.752987  154.937  141.725  3.323114
  6876.586  6876.580  0.500  3.736910  154.99  141.957  3.382504
  6880.458  6880.450  0.500  3.726329  155.016  142.217  3.424732
  6884.505  6884.500  0.500  3.720492  155.029  142.415  3.449573
  6888.719  6888.710  0.500  3.717483  155.067  142.675  3.466289
  6893.104  6893.090  0.500  3.715675  155.074  142.864  3.477174
  6897.653  6897.650  0.500  3.714394  155.11  143.102  3.487426
  6902.390  6902.380  0.500  3.709648  155.122  143.333  3.509665
  6907.297  6907.280  0.500  3.705531  155.121  143.578  3.530172
  6912.359  6912.350  0.500  3.701258  155.041  143.731  3.549066
  6917.603  6917.590  0.500  3.695700  154.991  143.948  3.574240
  6923.027  6923.010  0.500  3.686653  154.949  144.163  3.612100
  6928.598  6928.590  0.500  3.676150  154.958  144.38  3.655737
  6934.368  6934.350  0.500  3.665759  154.931  144.685  3.701715
  6940.293  6940.280  0.500  3.652646  154.978  144.997  3.758684
  6946.395  6946.380  0.500  3.640907  154.984  145.266  3.810113
  6952.658  6952.650  0.500  3.632497  154.984  145.57  3.850343
  6959.105  6959.090  0.500  3.626346  154.956  145.817  3.880672
  6965.714  6965.700  0.500  3.620321  154.986  146.173  3.913636
  6972.503  6972.490  0.500  3.613526  154.992  146.435  3.947381
  6979.467  6979.450  0.500  3.603461  154.954  146.815  3.997668
  6986.586  6986.570  0.500  3.593238  154.949  147.116  4.047018
  6993.888  6993.870  0.500  3.585085  154.918  147.438  4.089088
  7001.373  7001.350  0.500  3.577602  154.902  147.758  4.128739
  7009.009  7008.990  0.500  3.569417  154.867  148.053  4.170980
  7016.812  7016.800  0.500  3.558325  154.832  148.307  4.224750
  7024.805  7024.790  0.500  3.545551  154.804  148.719  4.290952
  7032.963  7032.950  0.500  3.533492  154.771  149.036  4.352258
  7041.284  7041.270  0.500  3.523977  154.703  149.371  4.403756
  7049.785  7049.770  0.500  3.514739  154.639  149.669  4.453482
  7058.464  7058.450  0.500  3.504960  154.612  150.015  4.507657
  7067.301  7067.290  0.500  3.493133  154.524  150.329  4.570826
  7076.314  7076.300  0.500  3.480700  153.938  150.22  4.624664
  7085.501  7085.490  0.500  3.468895  154.254  150.914  4.701182
  7094.866  7094.850  0.500  3.458687  154.202  151.276  4.760817
  7104.378  7104.370  0.500  3.448023  154.113  151.639  4.823401
  7114.077  7114.070  0.500  3.436383  153.756  151.664  4.880676
  7123.959  7123.950  0.500  3.423138  153.397  151.748  4.948497
  7133.993  7133.990  0.500  3.409704  152.821  151.622  5.011243
  7144.214  7144.200  0.500  3.397623  152.763  152.058  5.086752
  7154.598  7154.590  0.500  3.386842  152.71  152.413  5.153879
  7165.155  7165.150  0.500  3.375468  152.514  152.724  5.223495
  7175.889  7175.880  0.500  3.362190  152.25  152.85  5.297680
  7186.792  7186.780  0.500  3.348190  152.042  153.158  5.383198
  7197.860  7197.850  0.500  3.334611  151.74  153.332  5.462966
  7209.102  7209.090  0.500  3.321437  151.455  153.456  5.539902
  7220.522  7220.510  0.500  3.308925  151.153  153.627  5.615919
  7232.095  7232.090  0.500  3.296375  150.98  153.99  5.700273
  7243.861  7243.850  0.500  3.282404  150.675  154.164  5.786996
  7255.788  7255.780  0.500  3.267852  150.529  154.51  5.885005
  7267.889  7267.880  0.500  3.253682  150.659  155.125  5.992741
  7280.184  7280.150  0.500  3.240165  150.581  155.586  6.092335
  7292.624  7292.590  0.500  3.226912  150.222  155.752  6.180200
  7305.242  7305.210  0.500  3.213149  150.566  156.609  6.300319
  7318.019  7317.990  0.500  3.198262  150.289  156.764  6.401155
  7330.941  7330.950  0.500  3.183412  149.98  157.018  6.507466
  7344.112  7344.080  0.500  3.168745  149.635  157.196  6.611067
  7357.358  7357.380  0.500  3.154518  149.379  157.452  6.716725
  7370.870  7370.850  0.500  3.140415  149.042  157.652  6.820767
  7384.511  7384.500  0.500  3.126034  148.644  157.739  6.923404
  7398.321  7398.310  0.500  3.110807  148.336  157.958  7.039407
  7412.308  7412.300  0.500  3.095372  147.973  158.128  7.156600
  7426.470  7426.460  0.500  3.079915  147.598  158.282  7.275147
  7440.804  7440.790  0.500  3.065183  147.153  158.345  7.386041
  7455.306  7455.290  0.500  3.050765  146.883  158.638  7.507200
  7469.979  7469.960  0.500  3.035789  146.568  158.835  7.629931
  7484.824  7484.800  0.500  3.020271  145.99  158.788  7.746932
  7499.802  7499.820  0.500  3.004966  145.492  158.783  7.866175
  7514.985  7515.000  0.500  2.989211  144.972  158.791  7.991510
  7530.327  7530.360  0.500  2.973796  144.444  158.787  8.115447
  7545.874  7545.890  0.500  2.958667  143.894  158.745  8.236980
  7561.586  7561.590  0.500  2.943013  143.359  158.745  8.366911
  7577.470  7577.460  0.500  2.927480  142.78  158.648  8.492702
  7593.491  7593.510  0.500  2.911832  142.082  158.453  8.616040
  7609.692  7609.720  0.500  2.895954  140.843  157.651  8.709640
  7626.086  7626.110  0.500  2.880151  140.775  158.157  8.876747
  7642.665  7642.670  0.500  2.864292  140.258  158.134  9.017373
  7659.379  7659.400  0.500  2.848542  139.673  158.015  9.153579
  7676.274  7676.300  0.500  2.832551  139.036  157.895  9.294064
  7687.660  7687.660  0.500  2.821960  137.555  156.575  9.314519