Folder: webxdiviewer/xdidata/Pr (part 3)

File: Pr-L3-Pr2TiO5.xdi
# XDI/1.0 BlueSky/1.10.0 BMM/2023-1.0-py310-tiled
# Beamline.name: BMM (06BM) -- Beamline for Materials Measurement (NIST)
# Beamline.xray_source: NSLS-II three-pole wiggler
# Beamline.collimation: paraboloid mirror, 5 nm Rh on 30 nm Pt
# Beamline.focusing: not in use
# Beamline.harmonic_rejection: flat mirror, Si stripe, pitch = 7.0 mrad relative to beam
# Beamline.software: Bluesky 1.10.0, Ophyd 1.7.0, DataBroker 2.0.0b13, Python 3.10.8, 2023-1.0-py310-tiled
# Detector.I0: 10 cm N2
# Detector.I1: 25 cm N2
# Detector.I2: 25 cm N2
# Element.symbol: Pr
# Element.edge: L3
# Element.reference: Pr
# Element.reference_material: Pr6O11
# Facility.name: NSLS-II
# Facility.energy: 3.0
# Facility.current: 400.5
# Facility.mode: top-off
# Facility.GUP: 123456
# Facility.SAF: 301027
# Facility.cycle: 2023-2
# Mono.name: Si(111)
# Mono.d_spacing: 3.13519
# Mono.encoder_resolution: 0.0000050 deg/ct
# Mono.angle_offset: 16.0754 deg
# Mono.scan_mode: pseudo channel cut
# Mono.scan_type: step
# Mono.direction: forward in energy
# Sample.name: Pr2TiO5
# Sample.prep: Powder in PEG pellet
# Sample.x: 149.848 mm
# Sample.y: 114.690 mm
# Sample.SDD_position: 205.000 mm
# Scan.experimenters: Bruce Ravel
# Scan.edge_energy: 5964.3
# Scan.start_time: 2023-05-08T16:27:40
# Scan.end_time: 2023-05-08T16:33:14
# Scan.transient_id: 75400
# Scan.uid: a5dea640-9ab7-4e28-b699-ac5025608fe9
# Scan.plot_hint: ln(I0/It)  --  ln($5/$6)
# Column.1: energy eV
# Column.2: requested_energy eV
# Column.3: measurement_time seconds
# Column.4: xmu
# Column.5: I0 nA
# Column.6: It nA
# Column.7: Ir nA
# ///////////
# sample courtesy Martin Stennett, University of Sheffield
# -----------
# energy  requested_energy  measurement_time  xmu  I0  It  Ir
  5764.304  5764.300  0.500  2.972105  114.418  5.857681  0.250826
  5784.343  5784.300  0.500  2.937566  114.807  6.084155  0.268719
  5804.313  5804.300  0.500  2.903144  115.082  6.312297  0.287413
  5824.314  5824.300  0.500  2.869063  115.277  6.542229  0.307111
  5844.308  5844.300  0.500  2.835528  115.186  6.759984  0.327119
  5864.307  5864.300  0.500  2.803429  114.661  6.948680  0.346731
  5884.285  5884.300  0.500  2.770704  115.473  7.230696  0.371342
  5904.295  5904.300  0.500  2.738564  114.591  7.409799  0.391025
  5924.290  5924.300  0.500  2.707845  114.833  7.657088  0.414633
  5936.297  5936.300  0.500  2.690586  114.605  7.774906  0.425747
  5940.288  5940.300  0.500  2.685746  113.651  7.747614  0.425072
  5944.294  5944.300  0.500  2.681348  107.337  7.349454  0.403001
  5948.293  5948.300  0.500  2.678306  115.303  7.918938  0.432754
  5952.293  5952.300  0.500  2.678102  114.861  7.890221  0.425999
  5954.789  5954.800  0.500  2.681018  114.632  7.851554  0.417288
  5955.786  5955.800  0.500  2.683159  114.543  7.828642  0.411296
  5956.790  5956.800  0.500  2.686966  114.443  7.792125  0.403891
  5957.788  5957.800  0.500  2.693379  114.372  7.737519  0.393129
  5958.794  5958.800  0.500  2.701720  114.304  7.668647  0.378189
  5959.788  5959.800  0.500  2.712500  114.221  7.580922  0.358874
  5960.792  5960.800  0.500  2.725211  114.167  7.481608  0.336919
  5961.794  5961.800  0.500  2.742710  114.105  7.347836  0.311766
  5962.791  5962.800  0.500  2.769479  114.058  7.150850  0.278916
  5963.794  5963.800  0.500  2.810489  113.973  6.858361  0.233377
  5964.795  5964.800  0.500  2.862533  113.927  6.507953  0.174862
  5965.795  5965.800  0.500  2.911023  113.865  6.196538  0.118205
  5966.794  5966.800  0.500  2.941989  113.79  6.003659  0.076367
  5967.795  5967.800  0.500  2.961912  113.756  5.883457  0.051305
  5968.796  5968.800  0.500  2.969815  113.682  5.833327  0.042308
  5969.796  5969.800  0.500  2.962615  113.597  5.871087  0.042530
  5970.798  5970.800  0.500  2.941805  113.545  5.991809  0.046597
  5971.795  5971.800  0.500  2.915659  113.475  6.146735  0.052132
  5972.800  5972.800  0.500  2.889674  113.409  6.304919  0.060440
  5973.800  5973.800  0.500  2.865269  113.324  6.455842  0.071851
  5974.801  5974.800  0.500  2.844257  113.277  6.590157  0.084045
  5975.806  5975.800  0.500  2.828905  113.206  6.687942  0.093228
  5976.800  5976.800  0.500  2.817934  113.119  6.756519  0.097809
  5977.806  5977.800  0.500  2.811556  113.02  6.793816  0.097198
  5978.803  5978.800  0.500  2.807098  112.922  6.818199  0.093557
  5979.804  5979.800  0.500  2.804157  112.818  6.832024  0.091775
  5980.806  5980.800  0.500  2.802262  112.694  6.837425  0.094016
  5981.800  5981.800  0.500  2.801181  112.572  6.837438  0.098303
  5982.803  5982.800  0.500  2.800440  112.397  6.831881  0.105362
  5983.802  5983.800  0.500  2.800246  112.208  6.821692  0.115444
  5984.797  5984.800  0.500  2.798839  111.945  6.815311  0.125572
  5985.797  5985.800  0.500  2.797093  111.576  6.804697  0.133676
  5986.802  5986.800  0.500  2.794348  110.987  6.787357  0.139605
  5987.797  5987.800  0.500  2.791547  109.928  6.741485  0.143278
  5988.802  5988.800  0.500  2.788488  107.41  6.607256  0.143986
  5990.298  5990.290  0.500  2.784606  86.4201  5.336737  0.118879
  5992.303  5992.310  0.500  2.782121  114.102  7.063707  0.159248
  5994.416  5994.420  0.500  2.785041  114.413  7.062294  0.156564
  5996.596  5996.600  0.500  2.791043  113.988  6.993955  0.149670
  5998.862  5998.860  0.500  2.797661  113.673  6.928619  0.142194
  6001.199  6001.190  0.500  2.801486  113.414  6.886454  0.135808
  6003.606  6003.600  0.500  2.799491  113.17  6.885383  0.133257
  6006.090  6006.080  0.500  2.792154  112.976  6.924167  0.133571
  6008.648  6008.640  0.500  2.780805  112.784  6.991307  0.135946
  6011.287  6011.280  0.500  2.770093  112.618  7.056233  0.140095
  6014.005  6014.000  0.500  2.762056  112.417  7.100472  0.143795
  6016.789  6016.790  0.500  2.756184  112.232  7.130545  0.146258
  6019.650  6019.650  0.500  2.751520  112.032  7.151080  0.149047
  6022.588  6022.590  0.500  2.746945  111.856  7.172606  0.151853
  6025.611  6025.610  0.500  2.742161  111.666  7.194752  0.154832
  6028.713  6028.710  0.500  2.738576  111.474  7.208197  0.156892
  6031.883  6031.880  0.500  2.735343  111.244  7.216617  0.157999
  6035.133  6035.130  0.500  2.731531  111.03  7.230203  0.159034
  6038.452  6038.450  0.500  2.727564  110.793  7.243459  0.160462
  6041.857  6041.850  0.500  2.724437  110.564  7.251106  0.161405
  6045.333  6045.330  0.500  2.721588  110.302  7.254581  0.161655
  6048.890  6048.880  0.500  2.718685  110.056  7.259464  0.161577
  6052.518  6052.510  0.500  2.713837  109.757  7.274939  0.161699
  6056.215  6056.210  0.500  2.708203  109.313  7.286440  0.161835
  6059.998  6059.990  0.500  2.702850  108.898  7.297693  0.161888
  6063.857  6063.850  0.500  2.696536  108.448  7.313615  0.162154
  6067.783  6067.780  0.500  2.691060  108.126  7.331889  0.162394
  6071.798  6071.790  0.500  2.684584  107.798  7.357184  0.163500
  6075.884  6075.880  0.500  2.677703  107.437  7.383187  0.165944
  6080.051  6080.040  0.500  2.670886  107.046  7.406596  0.168725
  6084.294  6084.280  0.500  2.664807  106.648  7.424089  0.171340
  6088.602  6088.590  0.500  2.659359  106.217  7.434486  0.173334
  6092.995  6092.980  0.500  2.654149  105.758  7.440975  0.174531
  6097.462  6097.450  0.500  2.648669  105.315  7.450563  0.174895
  6101.999  6101.990  0.500  2.643290  104.805  7.454454  0.174686
  6106.620  6106.610  0.500  2.637636  104.267  7.458251  0.175391
  6111.311  6111.300  0.500  2.630348  103.695  7.471560  0.177743
  6116.078  6116.070  0.500  2.624097  103.109  7.475949  0.180010
  6120.930  6120.920  0.500  2.617923  102.498  7.477674  0.181823
  6125.857  6125.850  0.500  2.611572  101.849  7.477647  0.183755
  6130.859  6130.850  0.500  2.604547  101.15  7.478705  0.185598
  6135.932  6135.920  0.500  2.597607  100.437  7.477721  0.186445
  6141.082  6141.070  0.500  2.590526  99.5775  7.466378  0.186790
  6146.309  6146.300  0.500  2.582552  98.6879  7.458918  0.186898
  6151.618  6151.610  0.500  2.574916  97.7142  7.441936  0.187647
  6157.002  6156.990  0.500  2.566959  96.1929  7.384593  0.187637
  6162.459  6162.450  0.500  2.559452  95.7694  7.407485  0.190530
  6167.991  6167.980  0.500  2.552834  94.005  7.319299  0.190511
  6173.601  6173.590  0.500  2.545725  95.1148  7.458542  0.196512
  6179.280  6179.270  0.500  2.538614  93.8599  7.412661  0.196875
  6185.049  6185.040  0.500  2.531569  92.6554  7.369271  0.197189
  6190.875  6190.870  0.500  2.524339  91.4735  7.328053  0.196930
  6196.797  6196.790  0.500  2.516284  90.2683  7.289987  0.196830
  6202.785  6202.780  0.500  2.508293  89.0218  7.247005  0.197188
  6208.854  6208.850  0.500  2.500223  87.7511  7.201439  0.198152
  6214.995  6214.990  0.500  2.492234  86.4363  7.150439  0.198409
  6221.219  6221.210  0.500  2.484052  85.118  7.099231  0.200106
  6227.505  6227.500  0.500  2.476084  83.7814  7.043654  0.200377
  6233.882  6233.870  0.500  2.468386  82.4016  6.981187  0.200033
  6240.325  6240.320  0.500  2.460419  81.0217  6.919186  0.199270
  6246.851  6246.850  0.500  2.451506  79.6321  6.861399  0.198693
  6253.454  6253.450  0.500  2.443052  78.2066  6.795781  0.198608
  6260.124  6260.120  0.500  2.434077  76.8081  6.734432  0.198946
  6266.874  6266.870  0.500  2.425342  75.3787  6.667083  0.199774
  6273.702  6273.700  0.500  2.417007  73.9312  6.593791  0.200323
  6280.614  6280.610  0.500  2.408604  72.5003  6.520730  0.200625
  6287.598  6287.590  0.500  2.400196  71.0762  6.446628  0.199979
  6294.656  6294.650  0.500  2.391802  69.6611  6.371530  0.199458
  6301.783  6301.780  0.500  2.383001  68.248  6.297468  0.197978
  6308.996  6308.990  0.500  2.374191  66.8878  6.226565  0.197747
  6316.283  6316.280  0.500  2.364926  65.4938  6.153553  0.197587
  6323.647  6323.640  0.500  2.355385  64.1105  6.081332  0.198035
  6331.089  6331.080  0.500  2.345945  62.7768  6.011301  0.198255
  6338.597  6338.590  0.500  2.336828  61.4738  5.940444  0.198877
  6346.191  6346.180  0.500  2.327624  60.1669  5.867911  0.198666
  6353.857  6353.850  0.500  2.318343  58.8777  5.795717  0.198159
  6361.603  6361.590  0.500  2.308918  57.6238  5.726004  0.197357
  6369.423  6369.410  0.500  2.299834  56.3695  5.652478  0.196480
  6377.320  6377.310  0.500  2.289884  55.1378  5.584263  0.196435
  6385.295  6385.280  0.500  2.280507  53.9277  5.513161  0.196204
  6393.354  6393.330  0.500  2.271150  52.7225  5.440622  0.196552
  6401.454  6401.450  0.500  2.261162  51.5618  5.374254  0.197043
  6409.665  6409.650  0.500  2.251489  50.4009  5.304309  0.197054
  6417.911  6417.930  0.500  2.241941  49.262  5.234192  0.196344

File: Pr-L3-Pr-hydroxide.xdi
# XDI/1.0 BlueSky/1.10.0 BMM/2023-1.0-py310-tiled
# Beamline.name: BMM (06BM) -- Beamline for Materials Measurement (NIST)
# Beamline.xray_source: NSLS-II three-pole wiggler
# Beamline.collimation: paraboloid mirror, 5 nm Rh on 30 nm Pt
# Beamline.focusing: not in use
# Beamline.harmonic_rejection: flat mirror, Si stripe, pitch = 7.0 mrad relative to beam
# Beamline.software: Bluesky 1.10.0, Ophyd 1.7.0, DataBroker 2.0.0b13, Python 3.10.8, 2023-1.0-py310-tiled
# Detector.I0: 10 cm N2
# Detector.I1: 25 cm N2
# Detector.I2: 25 cm N2
# Element.symbol: Pr
# Element.edge: L3
# Element.reference: Pr
# Element.reference_material: Pr6O11
# Facility.name: NSLS-II
# Facility.energy: 3.0
# Facility.current: 400.3
# Facility.mode: top-off
# Facility.GUP: 123456
# Facility.SAF: 301027
# Facility.cycle: 2023-2
# Mono.name: Si(111)
# Mono.d_spacing: 3.13519
# Mono.encoder_resolution: 0.0000050 deg/ct
# Mono.angle_offset: 16.0754 deg
# Mono.scan_mode: pseudo channel cut
# Mono.scan_type: step
# Mono.direction: forward in energy
# Sample.name: Pr(OH)3
# Sample.prep: Powder in PEG pellet
# Sample.x: 123.848 mm
# Sample.y: 114.690 mm
# Sample.SDD_position: 205.000 mm
# Scan.experimenters: Bruce Ravel
# Scan.edge_energy: 5964.3
# Scan.start_time: 2023-05-08T16:21:21
# Scan.end_time: 2023-05-08T16:26:47
# Scan.transient_id: 75395
# Scan.uid: c8a31b95-cbfb-4323-931d-32f4236b514f
# Scan.plot_hint: ln(I0/It)  --  ln($5/$6)
# Column.1: energy eV
# Column.2: requested_energy eV
# Column.3: measurement_time seconds
# Column.4: xmu
# Column.5: I0 nA
# Column.6: It nA
# Column.7: Ir nA
# ///////////
# sample courtesy Martin Stennett, University of Sheffield
# -----------
# energy  requested_energy  measurement_time  xmu  I0  It  Ir
  5764.304  5764.300  0.500  3.375556  114.303  3.909071  0.167316
  5784.337  5784.300  0.500  3.333611  114.73  4.091723  0.180510
  5804.319  5804.300  0.500  3.293221  115.021  4.271182  0.194638
  5824.310  5824.300  0.500  3.253839  115.17  4.448517  0.208852
  5844.313  5844.300  0.500  3.214636  115.128  4.624674  0.223693
  5864.311  5864.300  0.500  3.175660  114.557  4.784665  0.238464
  5884.311  5884.300  0.500  3.137685  115.38  5.005541  0.256828
  5904.311  5904.300  0.500  3.101777  114.503  5.149107  0.271630
  5924.312  5924.300  0.500  3.068834  114.76  5.333488  0.288490
  5936.308  5936.300  0.500  3.056312  114.52  5.389428  0.295261
  5940.304  5940.300  0.500  3.055299  113.577  5.350435  0.293565
  5944.303  5944.300  0.500  3.057910  107.176  5.035748  0.276029
  5948.299  5948.300  0.500  3.067897  115.23  5.360353  0.292923
  5952.303  5952.300  0.500  3.091600  114.745  5.212794  0.281224
  5954.794  5954.800  0.500  3.122096  114.525  5.046532  0.268117
  5955.789  5955.800  0.500  3.142464  114.45  4.941535  0.259845
  5956.789  5956.800  0.500  3.169986  114.325  4.802127  0.248809
  5957.789  5957.800  0.500  3.209328  114.264  4.614425  0.234398
  5958.791  5958.800  0.500  3.264853  114.197  4.362617  0.215067
  5959.791  5959.800  0.500  3.328900  114.125  4.089387  0.193630
  5960.795  5960.800  0.500  3.406862  114.054  3.780312  0.170164
  5961.791  5961.800  0.500  3.508871  113.977  3.411418  0.144782
  5962.791  5962.800  0.500  3.660283  113.916  2.930518  0.114482
  5963.795  5963.800  0.500  3.913412  113.872  2.274271  0.077535
  5964.792  5964.800  0.500  4.371401  113.795  1.437630  0.038947
  5965.797  5965.800  0.500  5.176954  113.757  0.642176  0.012572
  5966.794  5966.800  0.500  6.252600  113.683  0.218890  0.002935
  5967.798  5967.800  0.500  7.107147  113.636  0.093094  0.000934
  5968.798  5968.800  0.500  7.199511  113.559  0.084823  0.000632
  5969.796  5969.800  0.500  6.699552  113.526  0.139803  0.001086
  5970.800  5970.800  0.500  6.027193  113.43  0.273621  0.002261
  5971.796  5971.800  0.500  5.444937  113.375  0.489565  0.004221
  5972.803  5972.800  0.500  5.013341  113.329  0.753485  0.007352
  5973.797  5973.800  0.500  4.702745  113.244  1.027157  0.011582
  5974.799  5974.800  0.500  4.486554  113.178  1.274319  0.016401
  5975.802  5975.800  0.500  4.355239  113.104  1.452187  0.020355
  5976.801  5976.800  0.500  4.290132  113.041  1.549010  0.022683
  5977.806  5977.800  0.500  4.268118  112.935  1.582014  0.022732
  5978.801  5978.800  0.500  4.260885  112.835  1.592080  0.022045
  5979.802  5979.800  0.500  4.252510  112.729  1.603967  0.021833
  5980.806  5980.800  0.500  4.235937  112.605  1.628965  0.022713
  5981.799  5981.800  0.500  4.210124  112.464  1.669480  0.024162
  5982.802  5982.800  0.500  4.179425  112.291  1.718871  0.026634
  5983.805  5983.800  0.500  4.154476  112.11  1.759460  0.029990
  5984.800  5984.800  0.500  4.141215  111.839  1.778633  0.032913
  5985.802  5985.800  0.500  4.141472  111.482  1.772494  0.035053
  5986.803  5986.800  0.500  4.157859  110.889  1.734423  0.035713
  5987.795  5987.800  0.500  4.188249  110.003  1.669058  0.035623
  5988.800  5988.800  0.500  4.230639  107.727  1.566677  0.034214
  5990.296  5990.290  0.500  4.298154  86.7486  1.179229  0.026354
  5992.323  5992.310  0.500  4.391802  114.03  1.411513  0.032011
  5994.431  5994.420  0.500  4.482421  114.285  1.292108  0.028746
  5996.611  5996.600  0.500  4.558154  113.875  1.193567  0.025550
  5998.877  5998.860  0.500  4.596697  113.548  1.145139  0.023544
  6001.207  6001.190  0.500  4.590713  113.3  1.149502  0.022806
  6003.597  6003.600  0.500  4.549215  113.033  1.195380  0.023092
  6006.075  6006.080  0.500  4.486778  112.852  1.270354  0.024711
  6008.636  6008.640  0.500  4.407449  112.688  1.373240  0.026841
  6011.291  6011.280  0.500  4.327225  112.505  1.485537  0.029668
  6014.004  6014.000  0.500  4.267396  112.328  1.574647  0.032105
  6016.792  6016.790  0.500  4.238480  112.125  1.617909  0.033315
  6019.652  6019.650  0.500  4.231944  111.967  1.626224  0.034053
  6022.596  6022.590  0.500  4.229627  111.775  1.627197  0.034604
  6025.617  6025.610  0.500  4.232243  111.588  1.620234  0.034994
  6028.716  6028.710  0.500  4.250039  111.37  1.588539  0.034607
  6031.881  6031.880  0.500  4.273354  111.171  1.549170  0.034057
  6035.134  6035.130  0.500  4.301936  110.933  1.502294  0.033144
  6038.456  6038.450  0.500  4.338800  110.692  1.444776  0.032037
  6041.860  6041.850  0.500  4.362969  110.476  1.407525  0.031420
  6045.334  6045.330  0.500  4.362195  110.215  1.405284  0.031483
  6048.888  6048.880  0.500  4.351001  109.964  1.417864  0.031671
  6052.515  6052.510  0.500  4.330440  109.682  1.443606  0.032138
  6056.215  6056.210  0.500  4.296574  109.249  1.487434  0.033266
  6060.000  6059.990  0.500  4.262720  108.81  1.532478  0.034102
  6063.857  6063.850  0.500  4.230871  108.374  1.575734  0.035191
  6067.786  6067.780  0.500  4.209666  108.067  1.604940  0.035665
  6071.796  6071.790  0.500  4.206196  107.729  1.605474  0.035892
  6075.890  6075.880  0.500  4.209011  107.377  1.595740  0.035951
  6080.046  6080.040  0.500  4.208630  106.978  1.590420  0.036246
  6084.292  6084.280  0.500  4.205015  106.597  1.590494  0.036774
  6088.597  6088.590  0.500  4.203833  106.17  1.585991  0.037175
  6092.989  6092.980  0.500  4.204774  105.732  1.577968  0.037190
  6097.463  6097.450  0.500  4.206908  105.262  1.567601  0.037097
  6101.999  6101.990  0.500  4.214524  104.777  1.548536  0.036470
  6106.617  6106.610  0.500  4.215858  104.231  1.538421  0.036222
  6111.311  6111.300  0.500  4.202440  103.689  1.551081  0.036999
  6116.077  6116.070  0.500  4.190040  103.107  1.561621  0.037622
  6120.930  6120.920  0.500  4.168150  102.47  1.586324  0.038682
  6125.859  6125.850  0.500  4.144833  101.803  1.613183  0.039797
  6130.862  6130.850  0.500  4.121623  101.13  1.640140  0.040822
  6135.929  6135.920  0.500  4.107343  100.407  1.651839  0.041286
  6141.080  6141.070  0.500  4.098094  99.5894  1.653613  0.041466
  6146.310  6146.300  0.500  4.092543  98.7104  1.648141  0.041409
  6151.621  6151.610  0.500  4.088418  97.6875  1.637803  0.041450
  6157.002  6156.990  0.500  4.081310  96.2126  1.624581  0.041473
  6162.463  6162.450  0.500  4.070493  95.7693  1.634684  0.042062
  6167.987  6167.980  0.500  4.061638  94.02  1.619099  0.042305
  6173.600  6173.590  0.500  4.051903  95.1297  1.654234  0.043649
  6179.278  6179.270  0.500  4.041948  93.8443  1.648209  0.043882
  6185.047  6185.040  0.500  4.032093  92.6679  1.643666  0.044041
  6190.876  6190.870  0.500  4.026177  91.4728  1.632096  0.043881
  6196.794  6196.790  0.500  4.020250  90.2815  1.620415  0.043903
  6202.785  6202.780  0.500  4.009331  89.0573  1.615993  0.044045
  6208.854  6208.850  0.500  3.993618  87.7494  1.617475  0.044516
  6214.998  6214.990  0.500  3.978790  86.4753  1.617804  0.045041
  6221.216  6221.210  0.500  3.956295  85.1662  1.629560  0.045955
  6227.508  6227.500  0.500  3.941663  83.83  1.627635  0.046409
  6233.885  6233.870  0.500  3.930523  82.4194  1.618173  0.046481
  6240.322  6240.320  0.500  3.924148  81.0584  1.601631  0.046140
  6246.850  6246.850  0.500  3.917954  79.6608  1.583796  0.045897
  6253.451  6253.450  0.500  3.907237  78.2544  1.572597  0.046010
  6260.127  6260.120  0.500  3.892316  76.7997  1.566564  0.046397
  6266.878  6266.870  0.500  3.877343  75.4036  1.561289  0.046908
  6273.702  6273.700  0.500  3.862390  73.9295  1.553828  0.047254
  6280.614  6280.610  0.500  3.848118  72.524  1.546200  0.047504
  6287.597  6287.590  0.500  3.837149  71.0957  1.532466  0.047587
  6294.657  6294.650  0.500  3.825722  69.6908  1.519447  0.047489
  6301.785  6301.780  0.500  3.814645  68.2632  1.504899  0.047166
  6308.998  6308.990  0.500  3.801513  66.8901  1.494121  0.047403
  6316.286  6316.280  0.500  3.784424  65.5182  1.488701  0.047857
  6323.647  6323.640  0.500  3.765015  64.1402  1.485953  0.048350
  6331.086  6331.080  0.500  3.748942  62.8104  1.478722  0.048802
  6338.600  6338.590  0.500  3.734959  61.4697  1.467536  0.049082
  6346.189  6346.180  0.500  3.721219  60.1946  1.456978  0.049203
  6353.857  6353.850  0.500  3.706939  58.8984  1.446108  0.049493
  6361.602  6361.590  0.500  3.694411  57.6416  1.433091  0.049477
  6369.424  6369.410  0.500  3.681565  56.3961  1.420253  0.049424
  6377.331  6377.310  0.500  3.667618  55.1616  1.408676  0.049456
  6385.295  6385.280  0.500  3.650654  53.95  1.401304  0.049882
  6393.346  6393.330  0.500  3.632847  52.7398  1.394481  0.050318
  6401.443  6401.450  0.500  3.616545  51.5726  1.386032  0.050812
  6409.666  6409.650  0.500  3.602304  50.4098  1.374212  0.050990
  6417.944  6417.930  0.500  3.589827  49.2536  1.359551  0.050925