Folder: webxdiviewer/xdidata/Pt (part 5)

File: Pt-L3-TetraammineplatinumChloride.xdi
# XDI/1.0 BlueSky/1.10.0 BMM/2023-1.0-py310-tiled
# Beamline.name: BMM (06BM) -- Beamline for Materials Measurement (NIST)
# Beamline.xray_source: NSLS-II three-pole wiggler
# Beamline.collimation: paraboloid mirror, 5 nm Rh on 30 nm Pt
# Beamline.focusing: not in use
# Beamline.harmonic_rejection: flat mirror, Pt stripe, pitch = 7.0 mrad relative to beam
# Beamline.software: Bluesky 1.10.0, Ophyd 1.7.0, DataBroker 2.0.0b13, Python 3.10.8, 2023-1.0-py310-tiled
# Detector.I0: 10 cm N2
# Detector.I1: 25 cm N2
# Detector.I2: 25 cm N2
# Element.symbol: Pt
# Element.edge: L3
# Element.reference: Pt
# Element.reference_material: Pt foil
# Facility.name: NSLS-II
# Facility.energy: 3.0
# Facility.current: 399.9
# Facility.mode: top-off
# Facility.GUP: 301027
# Facility.SAF: 310583
# Facility.cycle: 2023-2
# Mono.name: Si(111)
# Mono.d_spacing: 3.13519
# Mono.encoder_resolution: 0.0000050 deg/ct
# Mono.angle_offset: 16.0754 deg
# Mono.scan_mode: pseudo channel cut
# Mono.scan_type: step
# Mono.direction: forward in energy
# Sample.name: Pt(NH3)4Cl2.xH2O
# Sample.prep: powder on tape
# Sample.x: 119.711 mm
# Sample.y: 114.376 mm
# Sample.SDD_position: 205.000 mm
# Scan.experimenters: Bruce Ravel
# Scan.edge_energy: 11563.8
# Scan.start_time: 2023-06-27T17:22:11
# Scan.end_time: 2023-06-27T17:30:07
# Scan.transient_id: 85185
# Scan.uid: 25df2c66-ec7b-4417-9144-2e7879e5814c
# Scan.plot_hint: ln(I0/It)  --  ln($5/$6)
# Column.1: energy eV
# Column.2: requested_energy eV
# Column.3: measurement_time seconds
# Column.4: xmu
# Column.5: I0 nA
# Column.6: It nA
# Column.7: Ir nA
# ///////////
# sample courtesy Simon Bare and Shelly Kelly
# -----------
# energy  requested_energy  measurement_time  xmu  I0  It  Ir
  11363.784  11363.800  0.500  0.180242  71.9065  60.0468  24.9914
  11393.823  11393.800  0.500  0.173938  69.7995  58.6559  24.5699
  11423.842  11423.800  0.500  0.167740  70.7248  59.803  25.2078
  11453.897  11453.800  0.500  0.161860  70.1821  59.6942  25.3172
  11483.843  11483.800  0.500  0.156421  69.7454  59.6462  25.436
  11513.822  11513.800  0.500  0.152733  69.167  59.3701  25.3916
  11535.762  11535.800  0.500  0.155353  68.7309  58.8414  25.0353
  11541.753  11541.800  0.500  0.158872  68.5767  58.5032  24.7465
  11547.757  11547.800  0.500  0.166698  68.3889  57.8882  24.1893
  11553.768  11553.800  0.500  0.185633  68.2118  56.6552  22.9886
  11554.644  11554.700  0.500  0.190474  68.1499  56.3304  22.68
  11555.550  11555.600  0.500  0.196464  68.0932  55.9475  22.3028
  11556.456  11556.500  0.500  0.203937  68.1369  55.5666  21.8825
  11557.379  11557.400  0.500  0.213010  68.1869  55.1051  21.3654
  11558.291  11558.300  0.500  0.224183  68.1247  54.4431  20.7024
  11559.180  11559.200  0.500  0.237817  68.0134  53.6182  19.891
  11560.081  11560.100  0.500  0.255931  67.9407  52.5994  18.8704
  11560.987  11561.000  0.500  0.280088  67.8185  51.2516  17.55
  11561.871  11561.900  0.500  0.312109  67.6525  49.5149  15.8975
  11562.783  11562.800  0.500  0.357769  67.4575  47.1686  13.7863
  11563.679  11563.700  0.500  0.421369  67.2025  44.0948  11.3283
  11564.592  11564.600  0.500  0.511072  66.893  40.1259  8.733037
  11565.505  11565.500  0.500  0.634775  66.6118  35.3079  6.411940
  11566.407  11566.400  0.500  0.795854  66.4369  29.976  4.675921
  11567.285  11567.300  0.500  0.957638  66.4131  25.4892  3.709261
  11568.181  11568.200  0.500  1.055321  66.4981  23.1467  3.411918
  11569.083  11569.100  0.500  1.045676  66.6047  23.4085  3.636773
  11569.985  11570.000  0.500  0.970807  66.6825  25.2578  4.144371
  11570.899  11570.900  0.500  0.888138  66.7465  27.4609  4.711276
  11571.808  11571.800  0.500  0.821812  66.792  29.3641  5.212037
  11572.699  11572.700  0.500  0.776631  66.8042  30.7268  5.592628
  11573.601  11573.600  0.500  0.748300  66.8314  31.6226  5.878263
  11574.487  11574.500  0.500  0.730901  66.8443  32.1838  6.088324
  11575.390  11575.400  0.500  0.716573  66.8257  32.6392  6.245667
  11576.299  11576.300  0.500  0.701131  66.8215  33.1451  6.374673
  11577.208  11577.200  0.500  0.685778  66.7987  33.6464  6.462019
  11578.112  11578.100  0.500  0.673174  66.775  34.0611  6.494913
  11579.004  11579.000  0.500  0.666434  66.748  34.2775  6.466926
  11579.907  11579.900  0.500  0.664860  66.7127  34.3134  6.400843
  11580.794  11580.800  0.500  0.666559  66.6934  34.2452  6.336761
  11581.686  11581.700  0.500  0.668952  66.6681  34.1504  6.309833
  11582.584  11582.600  0.500  0.669941  66.6757  34.1206  6.338476
  11583.506  11583.500  0.500  0.668998  66.6863  34.1581  6.424683
  11584.399  11584.400  0.500  0.665981  66.6837  34.26  6.533633
  11585.304  11585.300  0.500  0.661692  66.6857  34.4083  6.635753
  11586.203  11586.200  0.500  0.657018  66.6596  34.556  6.703252
  11587.090  11587.100  0.500  0.652636  66.6626  34.7093  6.743142
  11587.989  11588.000  0.500  0.649121  66.6484  34.8241  6.762365
  11588.778  11588.800  0.500  0.647475  66.6219  34.8676  6.756873
  11591.833  11591.810  0.500  0.661173  66.5355  34.3487  6.436065
  11595.007  11595.000  0.500  0.685796  66.434  33.4621  5.954510
  11598.387  11598.360  0.500  0.697399  66.4263  33.0722  6.017501
  11601.898  11601.880  0.500  0.707394  66.4099  32.7352  6.158213
  11605.599  11605.580  0.500  0.726557  66.3904  32.1045  6.124043
  11609.455  11609.450  0.500  0.752096  66.3412  31.2717  6.054772
  11613.506  11613.500  0.500  0.768275  66.2372  30.7216  5.828394
  11617.719  11617.710  0.500  0.762662  66.1328  30.8459  5.657303
  11622.082  11622.090  0.500  0.738001  66.0502  31.5766  5.707357
  11626.660  11626.650  0.500  0.712311  66.0094  32.3782  5.934864
  11631.395  11631.380  0.500  0.698610  65.9542  32.7974  6.104280
  11636.269  11636.280  0.500  0.691975  65.8974  32.9873  6.200536
  11641.365  11641.350  0.500  0.686348  65.8426  33.1459  6.354746
  11646.578  11646.590  0.500  0.682412  65.774  33.2419  6.483047
  11652.120  11652.010  0.500  0.682203  65.5071  33.114  6.474384
  11657.680  11657.590  0.500  0.686579  65.5757  33.0039  6.344909
  11663.357  11663.350  0.500  0.693837  65.4229  32.6889  6.178725
  11669.271  11669.280  0.500  0.700811  65.1987  32.3504  6.112601
  11675.387  11675.380  0.500  0.705402  65.2818  32.2433  6.129091
  11681.658  11681.650  0.500  0.707440  65.3689  32.2206  6.140647
  11688.113  11688.090  0.500  0.705196  65.2599  32.2391  6.105023
  11694.707  11694.700  0.500  0.699883  65.1627  32.3626  6.150315
  11701.505  11701.490  0.500  0.693533  65.0652  32.5201  6.307106
  11708.454  11708.450  0.500  0.687557  64.9678  32.666  6.447403
  11715.579  11715.570  0.500  0.682745  64.8586  32.7684  6.442299
  11722.892  11722.870  0.500  0.679893  64.7366  32.8002  6.366191
  11730.357  11730.350  0.500  0.678819  64.6048  32.7686  6.310226
  11738.006  11737.990  0.500  0.678934  64.4699  32.6964  6.283974
  11745.804  11745.800  0.500  0.679489  64.3053  32.5948  6.283161
  11753.780  11753.790  0.500  0.680198  64.2209  32.529  6.231639
  11761.930  11761.950  0.500  0.680777  64.0996  32.4487  6.253230
  11770.278  11770.270  0.500  0.681072  63.7574  32.266  6.359792
  11778.776  11778.770  0.500  0.680124  63.6556  32.245  6.412956
  11787.469  11787.450  0.500  0.677672  63.7377  32.3659  6.455339
  11796.308  11796.290  0.500  0.674035  63.5911  32.4091  6.454607
  11805.300  11805.300  0.500  0.669624  63.1622  32.3328  6.370442
  11814.500  11814.490  0.500  0.665407  63.2626  32.521  6.320559
  11823.879  11823.850  0.500  0.661841  63.1166  32.5619  6.348088
  11833.389  11833.370  0.500  0.659040  62.9618  32.5731  6.461607
  11843.085  11843.070  0.500  0.656798  62.8331  32.5795  6.581368
  11852.962  11852.950  0.500  0.655155  62.713  32.5707  6.587042
  11863.016  11862.990  0.500  0.653844  62.3581  32.4289  6.559801
  11873.246  11873.200  0.500  0.652651  62.3853  32.4817  6.602733
  11883.617  11883.590  0.500  0.651068  62.1661  32.4189  6.543473
  11894.172  11894.150  0.500  0.648706  62.0477  32.4337  6.496432
  11904.901  11904.880  0.500  0.645861  61.8257  32.4097  6.523622
  11915.792  11915.780  0.500  0.642447  61.669  32.4381  6.647554
  11926.882  11926.850  0.500  0.639006  61.5614  32.4932  6.714437
  11938.124  11938.090  0.500  0.635503  61.3671  32.5043  6.713456
  11949.517  11949.510  0.500  0.632087  61.2111  32.5326  6.732725
  11961.101  11961.090  0.500  0.628842  61.0453  32.5499  6.773449
  11972.883  11972.850  0.500  0.626135  60.8362  32.5263  6.741073
  11984.800  11984.780  0.500  0.623345  60.657  32.5211  6.739300
  11996.911  11996.880  0.500  0.620754  60.4719  32.506  6.750649
  12009.166  12009.150  0.500  0.618395  60.2693  32.4736  6.824439
  12021.603  12021.590  0.500  0.615486  60.1155  32.4851  6.926917
  12034.243  12034.210  0.500  0.612593  59.9142  32.4701  6.939810
  12046.993  12046.990  0.500  0.609194  58.9738  32.0693  6.845615
  12059.978  12059.950  0.500  0.605563  59.4866  32.4658  6.923851
  12073.107  12073.080  0.500  0.601829  59.3024  32.4864  6.939859
  12086.397  12086.380  0.500  0.597991  59.0933  32.4963  6.964618
  12099.890  12099.850  0.500  0.594270  58.8949  32.508  7.027824
  12113.535  12113.500  0.500  0.590486  58.6857  32.5153  7.084221
  12127.326  12127.310  0.500  0.587097  58.4772  32.5098  7.138958
  12141.322  12141.300  0.500  0.583724  58.24  32.4873  7.173956
  12155.500  12155.460  0.500  0.580414  58.0546  32.4912  7.183664
  12169.807  12169.790  0.500  0.577041  57.8181  32.4682  7.179452
  12184.317  12184.290  0.500  0.573643  57.6029  32.4574  7.186951
  12199.004  12198.960  0.500  0.569945  57.3592  32.4399  7.214553
  12213.818  12213.800  0.500  0.566250  57.1732  32.4544  7.275787
  12228.852  12228.820  0.500  0.562147  56.9453  32.4579  7.333908
  12244.027  12244.000  0.500  0.558249  56.7118  32.4511  7.376540
  12259.411  12259.360  0.500  0.554095  56.4955  32.4619  7.432407
  12274.912  12274.890  0.500  0.550026  56.222  32.4364  7.458183
  12290.638  12290.590  0.500  0.545980  54.9485  31.8302  7.318398
  12306.490  12306.460  0.500  0.542134  55.7154  32.3988  7.452914
  12322.543  12322.510  0.500  0.538434  54.5482  31.8377  7.363169
  12338.757  12338.720  0.500  0.534472  55.2434  32.3714  7.558024
  12355.141  12355.110  0.500  0.530662  55.0092  32.3572  7.611327
  12371.703  12371.670  0.500  0.526575  54.7889  32.3597  7.655167
  12388.450  12388.400  0.500  0.522437  54.6883  32.4342  7.714571
  12405.343  12405.300  0.500  0.518120  54.4197  32.4145  7.747815
  12416.712  12416.660  0.500  0.515237  54.217  32.3871  7.758585