Folder: webxdiviewer/xdidata/Pt (part 3)

File: Pt-L3-PlatinumChloride.xdi
# XDI/1.0 BlueSky/1.10.0 BMM/2023-1.0-py310-tiled
# Beamline.name: BMM (06BM) -- Beamline for Materials Measurement (NIST)
# Beamline.xray_source: NSLS-II three-pole wiggler
# Beamline.collimation: paraboloid mirror, 5 nm Rh on 30 nm Pt
# Beamline.focusing: not in use
# Beamline.harmonic_rejection: flat mirror, Pt stripe, pitch = 7.0 mrad relative to beam
# Beamline.software: Bluesky 1.10.0, Ophyd 1.7.0, DataBroker 2.0.0b13, Python 3.10.8, 2023-1.0-py310-tiled
# Detector.I0: 10 cm N2
# Detector.I1: 25 cm N2
# Detector.I2: 25 cm N2
# Element.symbol: Pt
# Element.edge: L3
# Element.reference: Pt
# Element.reference_material: Pt foil
# Facility.name: NSLS-II
# Facility.energy: 3.0
# Facility.current: 400.2
# Facility.mode: top-off
# Facility.GUP: 301027
# Facility.SAF: 310583
# Facility.cycle: 2023-2
# Mono.name: Si(111)
# Mono.d_spacing: 3.13519
# Mono.encoder_resolution: 0.0000050 deg/ct
# Mono.angle_offset: 16.0754 deg
# Mono.scan_mode: pseudo channel cut
# Mono.scan_type: step
# Mono.direction: forward in energy
# Sample.name: PtCl2
# Sample.prep: powder on tape
# Sample.x: 119.711 mm
# Sample.y: 114.376 mm
# Sample.SDD_position: 205.000 mm
# Scan.experimenters: Bruce Ravel
# Scan.edge_energy: 11563.8
# Scan.start_time: 2023-06-27T17:30:37
# Scan.end_time: 2023-06-27T17:38:24
# Scan.transient_id: 85190
# Scan.uid: b2955a8a-e775-4488-be43-cb74dbb8cd3a
# Scan.plot_hint: ln(I0/It)  --  ln($5/$6)
# Column.1: energy eV
# Column.2: requested_energy eV
# Column.3: measurement_time seconds
# Column.4: xmu
# Column.5: I0 nA
# Column.6: It nA
# Column.7: Ir nA
# ///////////
# sample courtesy Simon Bare and Shelly Kelly
# -----------
# energy  requested_energy  measurement_time  xmu  I0  It  Ir
  11363.806  11363.800  0.500  0.287714  71.816  53.8602  22.4125
  11393.834  11393.800  0.500  0.280658  69.683  52.6307  22.0441
  11423.865  11423.800  0.500  0.273706  70.6347  53.7216  22.642
  11453.885  11453.800  0.500  0.266951  70.0777  53.6592  22.7547
  11483.866  11483.800  0.500  0.260741  69.6484  53.6627  22.878
  11513.845  11513.800  0.500  0.256524  69.0696  53.4416  22.852
  11535.779  11535.800  0.500  0.258547  68.6754  53.0293  22.5575
  11541.771  11541.800  0.500  0.262342  68.56  52.7397  22.3067
  11547.775  11547.800  0.500  0.270610  68.4096  52.1907  21.8073
  11553.768  11553.800  0.500  0.291569  68.2278  50.9723  20.6789
  11554.650  11554.700  0.500  0.297088  68.1994  50.6707  20.3956
  11555.567  11555.600  0.500  0.304307  68.1631  50.2794  20.0372
  11556.473  11556.500  0.500  0.313322  68.1213  49.7977  19.6032
  11557.373  11557.400  0.500  0.324238  68.0441  49.2012  19.0729
  11558.268  11558.300  0.500  0.338056  67.9893  48.487  18.4391
  11559.163  11559.200  0.500  0.355586  67.9299  47.6027  17.6643
  11560.069  11560.100  0.500  0.379477  67.8373  46.4156  16.6598
  11560.987  11561.000  0.500  0.413218  67.7416  44.8123  15.345
  11561.871  11561.900  0.500  0.459232  67.5972  42.7058  13.7112
  11562.795  11562.800  0.500  0.527177  67.3879  39.777  11.6166
  11563.690  11563.700  0.500  0.622337  67.1293  36.0276  9.244727
  11564.592  11564.600  0.500  0.747060  66.8184  31.6557  6.899150
  11565.487  11565.500  0.500  0.893369  66.5561  27.2397  4.946927
  11566.389  11566.400  0.500  1.023133  66.3849  23.8632  3.710239
  11567.279  11567.300  0.500  1.075414  66.3456  22.6342  3.289439
  11568.193  11568.200  0.500  1.040640  66.4249  23.4632  3.468446
  11569.095  11569.100  0.500  0.967735  66.5288  25.2771  3.938962
  11570.003  11570.000  0.500  0.900024  66.6254  27.0872  4.453461
  11570.899  11570.900  0.500  0.847488  66.6818  28.5725  4.904850
  11571.790  11571.800  0.500  0.806008  66.7223  29.8007  5.289413
  11572.687  11572.700  0.500  0.775811  66.7408  30.7228  5.593082
  11573.584  11573.600  0.500  0.759101  66.7722  31.2552  5.812766
  11574.510  11574.500  0.500  0.755487  66.7835  31.3737  5.938119
  11575.407  11575.400  0.500  0.762892  66.764  31.1331  5.961911
  11576.299  11576.300  0.500  0.776145  66.7595  30.7212  5.911252
  11577.196  11577.200  0.500  0.790485  66.7463  30.2778  5.817074
  11578.094  11578.100  0.500  0.801273  66.7075  29.9355  5.711455
  11578.992  11579.000  0.500  0.805308  66.6778  29.8016  5.624488
  11579.901  11579.900  0.500  0.802273  66.6551  29.8821  5.575797
  11580.800  11580.800  0.500  0.794788  66.6184  30.09  5.570857
  11581.715  11581.700  0.500  0.785119  66.6163  30.3814  5.615338
  11582.608  11582.600  0.500  0.776061  66.5974  30.6491  5.697516
  11583.506  11583.500  0.500  0.768899  66.6029  30.872  5.809249
  11584.393  11584.400  0.500  0.764987  66.7963  31.083  5.931520
  11585.292  11585.300  0.500  0.763926  66.7826  31.1096  6.001704
  11586.203  11586.200  0.500  0.765019  66.7704  31.0699  6.028576
  11587.108  11587.100  0.500  0.767625  66.7477  30.9786  6.020467
  11588.007  11588.000  0.500  0.770629  66.7115  30.8689  5.995880
  11588.807  11588.800  0.500  0.773360  66.7103  30.7841  5.967613
  11591.815  11591.810  0.500  0.782173  66.6157  30.4707  5.709423
  11595.018  11595.000  0.500  0.793084  66.5095  30.092  5.355766
  11598.375  11598.360  0.500  0.805961  66.4979  29.7019  5.405997
  11601.904  11601.880  0.500  0.815858  66.4935  29.4074  5.535611
  11605.581  11605.580  0.500  0.824852  66.4599  29.1294  5.556913
  11609.472  11609.450  0.500  0.834288  66.3963  28.8282  5.583311
  11613.506  11613.500  0.500  0.843394  66.3033  28.5269  5.414553
  11617.719  11617.710  0.500  0.847803  66.1877  28.3518  5.201044
  11622.106  11622.090  0.500  0.838373  66.1098  28.5868  5.168374
  11626.649  11626.650  0.500  0.818485  66.0519  29.1354  5.343517
  11631.389  11631.380  0.500  0.798453  66.0149  29.7083  5.531060
  11636.298  11636.280  0.500  0.784495  65.9521  30.0972  5.659396
  11641.353  11641.350  0.500  0.779986  65.9045  30.2115  5.795304
  11646.590  11646.590  0.500  0.781385  65.827  30.1337  5.877661
  11651.991  11652.010  0.500  0.782491  65.5735  29.9845  5.866149
  11657.574  11657.590  0.500  0.784244  65.6398  29.9622  5.764444
  11663.316  11663.350  0.500  0.791415  65.5163  29.6922  5.613420
  11669.313  11669.280  0.500  0.804827  65.2808  29.1913  5.518653
  11675.387  11675.380  0.500  0.817274  65.3716  28.8703  5.489252
  11681.664  11681.650  0.500  0.817707  65.2933  28.8232  5.495278
  11688.101  11688.090  0.500  0.802935  65.2081  29.214  5.534944
  11694.707  11694.700  0.500  0.785809  65.1183  29.6777  5.641020
  11701.499  11701.490  0.500  0.775332  65.0229  29.9464  5.811550
  11708.442  11708.450  0.500  0.771578  64.9583  30.0291  5.929431
  11715.573  11715.570  0.500  0.771672  64.8775  29.989  5.896487
  11722.886  11722.870  0.500  0.772955  64.7568  29.8948  5.805153
  11730.357  11730.350  0.500  0.775725  64.6539  29.7647  5.733837
  11737.982  11737.990  0.500  0.780551  64.5346  29.5667  5.684486
  11745.816  11745.800  0.500  0.786110  64.3682  29.327  5.654764
  11753.786  11753.790  0.500  0.788158  64.2953  29.2339  5.602356
  11761.948  11761.950  0.500  0.784099  64.1952  29.3071  5.651067
  11770.278  11770.270  0.500  0.776414  63.8574  29.3778  5.792611
  11778.789  11778.770  0.500  0.769411  63.7837  29.5501  5.880404
  11787.445  11787.450  0.500  0.763710  63.8586  29.754  5.935549
  11796.290  11796.290  0.500  0.759159  63.7272  29.8281  5.941729
  11805.294  11805.300  0.500  0.756199  63.2934  29.7129  5.856529
  11814.488  11814.490  0.500  0.755001  63.4105  29.8036  5.795815
  11823.842  11823.850  0.500  0.755445  63.2877  29.7327  5.798237
  11833.376  11833.370  0.500  0.756975  63.1138  29.6056  5.875287
  11843.079  11843.070  0.500  0.757381  63.0087  29.5443  5.970480
  11852.944  11852.950  0.500  0.755762  62.8731  29.5285  5.974309
  11862.991  11862.990  0.500  0.751503  62.5289  29.4922  5.968355
  11873.209  11873.200  0.500  0.745729  62.5492  29.6726  6.034024
  11883.611  11883.590  0.500  0.740323  62.3176  29.723  6.000961
  11894.185  11894.150  0.500  0.735984  62.2072  29.7993  5.971130
  11904.901  11904.880  0.500  0.732329  61.9951  29.8065  6.001304
  11915.798  11915.780  0.500  0.729261  61.8332  29.82  6.115199
  11926.851  11926.850  0.500  0.727436  61.7369  29.8279  6.167719
  11938.099  11938.090  0.500  0.726279  61.535  29.7648  6.150511
  11949.555  11949.510  0.500  0.725006  61.6076  29.8379  6.177119
  11961.120  11961.090  0.500  0.722759  61.4095  29.8089  6.205078
  11972.870  11972.850  0.500  0.719844  61.2201  29.8037  6.177978
  11984.800  11984.780  0.500  0.716082  61.02  29.8182  6.181007
  11996.904  11996.880  0.500  0.711526  60.8331  29.8626  6.204462
  12009.172  12009.150  0.500  0.706471  60.6623  29.9297  6.292537
  12021.622  12021.590  0.500  0.701423  60.4838  29.9927  6.398752
  12034.218  12034.210  0.500  0.697557  60.2796  30.0072  6.415936
  12046.999  12046.990  0.500  0.694856  59.3245  29.6116  6.323281
  12059.959  12059.950  0.500  0.692729  59.8628  29.9439  6.389048
  12073.094  12073.080  0.500  0.690364  59.6526  29.9094  6.392107
  12086.417  12086.380  0.500  0.687381  59.4522  29.898  6.409926
  12099.865  12099.850  0.500  0.683375  59.2384  29.9101  6.467194
  12113.516  12113.500  0.500  0.678993  59.0463  29.944  6.526088
  12127.358  12127.310  0.500  0.674436  58.8128  29.9618  6.582745
  12141.310  12141.300  0.500  0.670010  58.6324  30.0024  6.627154
  12155.474  12155.460  0.500  0.665730  58.3825  30.0027  6.634960
  12169.846  12169.790  0.500  0.661511  58.1842  30.0272  6.641940
  12184.310  12184.290  0.500  0.657866  57.9539  30.0176  6.647831
  12198.998  12198.960  0.500  0.654205  57.7069  29.9992  6.673126
  12213.844  12213.800  0.500  0.650659  57.4969  29.9962  6.728259
  12228.858  12228.820  0.500  0.646895  57.2734  29.9923  6.778722
  12244.027  12244.000  0.500  0.643088  57.0447  29.9865  6.819473
  12259.397  12259.360  0.500  0.638622  56.8241  30.0042  6.871633
  12274.912  12274.890  0.500  0.634075  56.5705  30.0065  6.901056
  12290.618  12290.590  0.500  0.629541  55.2468  29.4375  6.769756
  12306.497  12306.460  0.500  0.625090  56.0433  29.9951  6.902855
  12322.536  12322.510  0.500  0.620509  54.8484  29.4903  6.821895
  12338.750  12338.720  0.500  0.616194  55.5652  30.005  7.006539
  12355.161  12355.110  0.500  0.612011  55.3128  29.9939  7.058249
  12371.709  12371.670  0.500  0.607897  55.038  29.9679  7.092313
  12388.450  12388.400  0.500  0.603535  54.8701  30.0071  7.140562
  12405.330  12405.300  0.500  0.599251  54.5823  29.9778  7.166043
  12416.685  12416.660  0.500  0.596305  54.4018  29.9669  7.180992

File: Pt-L3-PlatinumFoil.xdi
# XDI/1.0 BlueSky/1.10.0 BMM/2023-1.0-py310-tiled
# Beamline.name: BMM (06BM) -- Beamline for Materials Measurement (NIST)
# Beamline.xray_source: NSLS-II three-pole wiggler
# Beamline.collimation: paraboloid mirror, 5 nm Rh on 30 nm Pt
# Beamline.focusing: not in use
# Beamline.harmonic_rejection: flat mirror, Pt stripe, pitch = 7.0 mrad relative to beam
# Beamline.software: Bluesky 1.10.0, Ophyd 1.7.0, DataBroker 2.0.0b13, Python 3.10.8, 2023-1.0-py310-tiled
# Detector.I0: 10 cm N2
# Detector.I1: 25 cm N2
# Detector.I2: 25 cm N2
# Element.symbol: Pt
# Element.edge: L3
# Element.reference: Pt
# Element.reference_material: Pt foil
# Facility.name: NSLS-II
# Facility.energy: 3.0
# Facility.current: 400.8
# Facility.mode: top-off
# Facility.GUP: 301027
# Facility.SAF: 310583
# Facility.cycle: 2023-2
# Mono.name: Si(111)
# Mono.d_spacing: 3.13519
# Mono.encoder_resolution: 0.0000050 deg/ct
# Mono.angle_offset: 16.0754 deg
# Mono.scan_mode: pseudo channel cut
# Mono.scan_type: step
# Mono.direction: forward in energy
# Sample.name: Pt foil
# Sample.prep: reference foil
# Sample.x: 109.138 mm
# Sample.y: 153.150 mm
# Sample.SDD_position: 205.000 mm
# Scan.experimenters: Bruce Ravel
# Scan.edge_energy: 11563.8
# Scan.start_time: 2023-05-28T18:57:11
# Scan.end_time: 2023-05-28T19:05:02
# Scan.transient_id: 78931
# Scan.uid: 7087ce09-c0ca-42b1-b29a-ad5783c3b504
# Scan.plot_hint: ln(It/Ir)  --  ln($6/$7)
# Column.1: energy eV
# Column.2: requested_energy eV
# Column.3: measurement_time seconds
# Column.4: xmu
# Column.5: I0 nA
# Column.6: It nA
# Column.7: Ir nA
# ///////////
# standard reference foil
# -----------
# energy  requested_energy  measurement_time  xmu  I0  It  Ir
  11363.744  11363.800  0.500  0.940809  70.6245  116.963  45.6521
  11393.862  11393.800  0.500  0.933769  68.0242  112.808  44.3414
  11423.774  11423.800  0.500  0.927037  69.5371  115.452  45.6871
  11453.823  11453.800  0.500  0.920570  69.0528  114.792  45.7208
  11483.820  11483.800  0.500  0.914623  68.6396  114.241  45.7727
  11513.845  11513.800  0.500  0.911270  68.1537  113.583  45.6619
  11535.808  11535.800  0.500  0.916587  67.9583  113.364  45.3321
  11541.765  11541.800  0.500  0.922691  67.8517  113.225  45.0011
  11547.769  11547.800  0.500  0.935469  67.7058  112.999  44.3411
  11553.762  11553.800  0.500  0.967693  67.5633  112.795  42.8574
  11554.650  11554.700  0.500  0.976461  67.5137  112.708  42.4507
  11555.550  11555.600  0.500  0.987514  67.483  112.677  41.9725
  11556.467  11556.500  0.500  1.001528  67.43  112.566  41.3474
  11557.373  11557.400  0.500  1.019195  67.3643  112.484  40.5938
  11558.268  11558.300  0.500  1.041703  67.3139  112.408  39.6637
  11559.186  11559.200  0.500  1.071245  67.2247  112.247  38.4539
  11560.081  11560.100  0.500  1.111323  67.1407  112.105  36.8963
  11560.993  11561.000  0.500  1.169137  67.0026  111.889  34.7566
  11561.894  11561.900  0.500  1.250876  66.8154  111.573  31.9382
  11562.795  11562.800  0.500  1.368572  66.5965  111.211  28.2999
  11563.690  11563.700  0.500  1.524126  66.2951  110.717  24.1155
  11564.574  11564.600  0.500  1.706076  65.993  110.223  20.014
  11565.487  11565.500  0.500  1.875295  65.7838  109.875  16.8449
  11566.372  11566.400  0.500  1.976380  65.6801  109.71  15.2026
  11567.285  11567.300  0.500  1.990116  65.7271  109.792  15.0063
  11568.193  11568.200  0.500  1.948622  65.8162  109.945  15.6639
  11569.106  11569.100  0.500  1.892384  65.9488  110.171  16.6041
  11570.014  11570.000  0.500  1.842513  66.0088  110.277  17.4699
  11570.911  11570.900  0.500  1.803973  66.0364  110.327  18.1647
  11571.808  11571.800  0.500  1.775687  66.0792  110.398  18.6977
  11572.704  11572.700  0.500  1.752664  66.0964  110.44  19.1406
  11573.607  11573.600  0.500  1.733554  66.1217  110.481  19.5171
  11574.493  11574.500  0.500  1.719200  66.1173  110.477  19.7985
  11575.396  11575.400  0.500  1.711214  66.1169  110.472  19.9563
  11576.299  11576.300  0.500  1.710162  66.0896  110.431  19.9699
  11577.191  11577.200  0.500  1.714859  66.0668  110.41  19.8727
  11578.082  11578.100  0.500  1.724327  66.0315  110.349  19.6745
  11579.015  11579.000  0.500  1.735973  66.0111  110.316  19.4409
  11579.901  11579.900  0.500  1.745681  65.9849  110.271  19.2452
  11580.811  11580.800  0.500  1.750465  65.9589  110.239  19.1477
  11581.704  11581.700  0.500  1.747750  65.9503  110.221  19.1967
  11582.584  11582.600  0.500  1.738159  65.9606  110.248  19.3865
  11583.495  11583.500  0.500  1.724220  65.9468  110.237  19.6566
  11584.405  11584.400  0.500  1.711238  66.1742  110.607  19.9802
  11585.304  11585.300  0.500  1.703212  66.1926  110.652  20.1494
  11586.197  11586.200  0.500  1.700084  66.1692  110.622  20.2072
  11587.108  11587.100  0.500  1.699881  66.1658  110.599  20.207
  11588.001  11588.000  0.500  1.701365  66.1507  110.581  20.1738
  11588.778  11588.800  0.500  1.704568  66.1453  110.587  20.1104
  11591.821  11591.810  0.500  1.746066  66.0461  110.431  19.2657
  11595.018  11595.000  0.500  1.789722  65.9478  110.276  18.4169
  11598.370  11598.360  0.500  1.758570  65.9499  110.298  19.0034
  11601.892  11601.880  0.500  1.729375  65.9574  110.327  19.5716
  11605.611  11605.580  0.500  1.714869  65.9001  110.254  19.8443
  11609.466  11609.450  0.500  1.703590  65.8477  110.178  20.0555
  11613.506  11613.500  0.500  1.727352  65.7526  110.03  19.5583
  11617.713  11617.710  0.500  1.760715  65.652  109.888  18.8921
  11622.112  11622.090  0.500  1.770740  65.5895  109.809  18.6902
  11626.649  11626.650  0.500  1.755392  65.5705  109.782  18.9746
  11631.401  11631.380  0.500  1.740897  65.5056  109.706  19.2384
  11636.281  11636.280  0.500  1.730480  65.4509  109.63  19.4264
  11641.371  11641.350  0.500  1.709656  65.4127  109.587  19.8273
  11646.602  11646.590  0.500  1.694243  65.3517  109.509  20.121
  11652.020  11652.010  0.500  1.692660  65.1025  109.11  20.0795
  11657.603  11657.590  0.500  1.711187  65.1408  109.212  19.7293
  11663.345  11663.350  0.500  1.726826  65.0574  109.08  19.3997
  11669.307  11669.280  0.500  1.725816  64.8581  108.779  19.3656
  11675.393  11675.380  0.500  1.719745  64.8915  108.86  19.498
  11681.664  11681.650  0.500  1.717977  64.7991  108.724  19.5083
  11688.113  11688.090  0.500  1.724357  64.7127  108.613  19.3644
  11694.713  11694.700  0.500  1.719105  64.6336  108.513  19.4485
  11701.505  11701.490  0.500  1.697677  64.4733  108.274  19.826
  11708.460  11708.450  0.500  1.681828  64.467  108.293  20.1461
  11715.579  11715.570  0.500  1.687003  64.3591  108.132  20.0123
  11722.904  11722.870  0.500  1.699547  64.2372  107.958  19.7311
  11730.363  11730.350  0.500  1.706876  64.1282  107.812  19.5606
  11737.994  11737.990  0.500  1.708159  63.9877  107.608  19.4984
  11745.816  11745.800  0.500  1.705213  63.7367  107.213  19.4842
  11753.816  11753.790  0.500  1.711705  63.7886  107.333  19.3798
  11761.972  11761.950  0.500  1.703384  63.6753  107.179  19.5137
  11770.290  11770.270  0.500  1.681626  63.3299  106.629  19.8406
  11778.795  11778.770  0.500  1.673045  63.371  106.727  20.0299
  11787.475  11787.450  0.500  1.670594  63.3438  106.718  20.0774
  11796.314  11796.290  0.500  1.672443  63.219  106.549  20.0087
  11805.318  11805.300  0.500  1.683583  62.7506  105.796  19.647
  11814.518  11814.490  0.500  1.696368  62.934  106.137  19.4601
  11823.861  11823.850  0.500  1.692197  62.7973  105.936  19.5043
  11833.383  11833.370  0.500  1.673980  62.6697  105.766  19.8311
  11843.079  11843.070  0.500  1.656624  62.5635  105.629  20.1521
  11852.981  11852.950  0.500  1.656027  62.4162  105.413  20.1229
  11863.028  11862.990  0.500  1.654851  62.1088  104.942  20.0565
  11873.209  11873.200  0.500  1.650311  62.1302  105.016  20.1621
  11883.604  11883.590  0.500  1.657765  61.8383  104.564  19.9261
  11894.160  11894.150  0.500  1.664984  61.8071  104.538  19.778
  11904.901  11904.880  0.500  1.659152  61.6617  104.338  19.8555
  11915.786  11915.780  0.500  1.640658  61.2756  103.725  20.1073
  11926.851  11926.850  0.500  1.633005  61.397  103.958  20.3074
  11938.111  11938.090  0.500  1.633584  61.1911  103.661  20.2377
  11949.536  11949.510  0.500  1.631144  61.2527  103.802  20.3147
  11961.095  11961.090  0.500  1.625827  61.1031  103.599  20.383
  11972.876  11972.850  0.500  1.629832  60.9376  103.356  20.2539
  11984.794  11984.780  0.500  1.629342  60.7655  103.106  20.2148
  11996.904  11996.880  0.500  1.626828  60.6012  102.875  20.2203
  12009.172  12009.150  0.500  1.614383  60.4405  102.649  20.4286
  12021.603  12021.590  0.500  1.600124  60.2825  102.421  20.6759
  12034.250  12034.210  0.500  1.597968  60.1029  102.161  20.668
  12047.005  12046.990  0.500  1.599011  58.525  99.5205  20.1127
  12059.972  12059.950  0.500  1.599788  59.7276  101.612  20.5195
  12073.088  12073.080  0.500  1.597828  59.5578  101.377  20.5122
  12086.410  12086.380  0.500  1.594231  59.3756  101.098  20.5293
  12099.909  12099.850  0.500  1.585480  59.2066  100.857  20.6605
  12113.522  12113.500  0.500  1.577369  59.0139  100.576  20.7706
  12127.345  12127.310  0.500  1.569276  58.7817  100.23  20.8674
  12141.329  12141.300  0.500  1.564008  58.6508  100.046  20.9393
  12155.493  12155.460  0.500  1.562445  58.4542  99.7611  20.9122
  12169.852  12169.790  0.500  1.562092  58.2582  99.4655  20.8576
  12184.291  12184.290  0.500  1.560709  58.0546  99.1734  20.8251
  12198.991  12198.960  0.500  1.555920  57.8234  98.8271  20.852
  12213.851  12213.800  0.500  1.547532  57.6645  98.5962  20.9785
  12228.845  12228.820  0.500  1.539695  57.4668  98.321  21.0846
  12244.027  12244.000  0.500  1.533371  57.2222  97.9502  21.1383
  12259.404  12259.360  0.500  1.526122  57.0126  97.6378  21.2242
  12274.938  12274.890  0.500  1.521830  56.817  97.3455  21.2517
  12290.611  12290.590  0.500  1.521668  55.207  94.6252  20.6612
  12306.503  12306.460  0.500  1.520792  56.3685  96.6725  21.1267
  12322.549  12322.510  0.500  1.515153  55.7343  95.6341  21.0179
  12338.764  12338.720  0.500  1.505510  55.9216  96.0052  21.3039
  12355.141  12355.110  0.500  1.497832  55.7046  95.6705  21.3933
  12371.703  12371.670  0.500  1.492033  55.4501  95.2943  21.4331
  12388.443  12388.400  0.500  1.486346  55.295  95.0687  21.5043
  12405.336  12405.300  0.500  1.481576  55.0602  94.7168  21.5272
  12416.699  12416.660  0.500  1.478985  54.8915  94.4478  21.5217