Folder: webxdiviewer/xdidata/Pt

Note: xdidata/README.md
# bmm-standards
A pretty webpage for BMM's collection of common XAFS materials

[BMM's common materials collection](./BMM-standards.html)

Plotting of the data will happen soon.

Periodic table adapted from [some guy named Daniel](https://codepen.io/gooseofmusic/pen/PjKdNQ)

[This](https://www.coderstool.com/scss-to-css) is a helpful tool for
dealing with Sassy CSS.

File: Pt-L1-PlatinumFoil.xdi
# XDI/1.0 BlueSky/1.10.0 BMM/2023-1.0-py310-tiled
# Beamline.name: BMM (06BM) -- Beamline for Materials Measurement (NIST)
# Beamline.xray_source: NSLS-II three-pole wiggler
# Beamline.collimation: paraboloid mirror, 5 nm Rh on 30 nm Pt
# Beamline.focusing: not in use
# Beamline.harmonic_rejection: flat mirror, Pt stripe, pitch = 7.0 mrad relative to beam
# Beamline.software: Bluesky 1.10.0, Ophyd 1.7.0, DataBroker 2.0.0b13, Python 3.10.8, 2023-1.0-py310-tiled
# Detector.I0: 10 cm N2
# Detector.I1: 25 cm N2
# Detector.I2: 25 cm N2
# Element.symbol: Pt
# Element.edge: L1
# Element.reference: Pt
# Element.reference_material: Pt foil
# Facility.name: NSLS-II
# Facility.energy: 3.0
# Facility.current: 399.9
# Facility.mode: top-off
# Facility.GUP: 301027
# Facility.SAF: 310583
# Facility.cycle: 2023-2
# Mono.name: Si(111)
# Mono.d_spacing: 3.13519
# Mono.encoder_resolution: 0.0000050 deg/ct
# Mono.angle_offset: 16.0754 deg
# Mono.scan_mode: pseudo channel cut
# Mono.scan_type: step
# Mono.direction: forward in energy
# Sample.name: Pt foil
# Sample.prep: reference foil
# Sample.x: 109.138 mm
# Sample.y: 153.150 mm
# Sample.SDD_position: 205.000 mm
# Scan.experimenters: Bruce Ravel
# Scan.edge_energy: 13880.5
# Scan.start_time: 2023-05-28T21:05:50
# Scan.end_time: 2023-05-28T21:13:22
# Scan.transient_id: 79015
# Scan.uid: 5e37658e-c2b4-4619-a0c6-41da9c60c89c
# Scan.plot_hint: ln(It/Ir)  --  ln($6/$7)
# Column.1: energy eV
# Column.2: requested_energy eV
# Column.3: measurement_time seconds
# Column.4: xmu
# Column.5: I0 nA
# Column.6: It nA
# Column.7: Ir nA
# ///////////
# Welcome to BMM
# -----------
# energy  requested_energy  measurement_time  xmu  I0  It  Ir
  13680.468  13680.500  0.500  1.507917  39.664  70.4474  15.595
  13710.531  13710.500  0.500  1.501494  39.4025  70.0122  15.5985
  13740.487  13740.500  0.500  1.487290  39.1089  69.5401  15.715
  13770.494  13770.500  0.500  1.485496  38.8196  69.0635  15.6353
  13800.467  13800.500  0.500  1.478830  38.5275  68.5863  15.6311
  13830.489  13830.500  0.500  1.469097  38.2589  68.1569  15.6852
  13852.423  13852.500  0.500  1.466469  38.0303  67.7706  15.6373
  13858.419  13858.500  0.500  1.467729  37.984  67.7004  15.6014
  13864.412  13864.500  0.500  1.469884  37.9132  67.5809  15.5404
  13870.452  13870.500  0.500  1.474802  37.8304  67.448  15.4337
  13871.326  13871.400  0.500  1.475814  37.8124  67.4111  15.4097
  13872.251  13872.300  0.500  1.477128  37.7888  67.3768  15.3816
  13873.133  13873.200  0.500  1.478671  37.7617  67.3214  15.3453
  13874.050  13874.100  0.500  1.480461  37.7404  67.291  15.3109
  13874.966  13875.000  0.500  1.482602  37.7316  67.2744  15.2744
  13875.841  13875.900  0.500  1.485084  37.7227  67.2663  15.2347
  13876.766  13876.800  0.500  1.487977  37.7087  67.2313  15.1828
  13877.650  13877.700  0.500  1.491828  37.6869  67.197  15.1167
  13878.542  13878.600  0.500  1.495975  37.6633  67.1543  15.0446
  13879.484  13879.500  0.500  1.501421  37.7067  67.2311  14.98
  13880.351  13880.400  0.500  1.507397  37.7178  67.2551  14.8961
  13881.268  13881.300  0.500  1.514179  37.6872  67.2041  14.7841
  13882.194  13882.200  0.500  1.521651  37.6776  67.1909  14.6712
  13883.078  13883.100  0.500  1.529288  37.6709  67.1745  14.556
  13884.004  13884.000  0.500  1.537504  37.6476  67.1336  14.4282
  13884.897  13884.900  0.500  1.545501  37.6214  67.0861  14.3031
  13885.798  13885.800  0.500  1.553733  37.5937  67.0385  14.1758
  13886.708  13886.700  0.500  1.562105  37.5665  66.9903  14.0475
  13887.584  13887.600  0.500  1.570526  37.5428  66.9531  13.922
  13888.519  13888.500  0.500  1.579701  37.5155  66.905  13.7849
  13889.396  13889.400  0.500  1.588684  37.4898  66.8578  13.652
  13890.281  13890.300  0.500  1.598342  37.4657  66.8192  13.5129
  13891.208  13891.200  0.500  1.608575  37.4395  66.7755  13.3666
  13892.076  13892.100  0.500  1.618477  37.4102  66.7313  13.2262
  13893.004  13893.000  0.500  1.628206  37.3857  66.6819  13.0884
  13893.898  13893.900  0.500  1.636683  37.3643  66.6446  12.9707
  13894.766  13894.800  0.500  1.643548  37.3386  66.6018  12.8737
  13895.677  13895.700  0.500  1.648744  37.3053  66.5448  12.796
  13896.597  13896.600  0.500  1.652417  37.2844  66.5031  12.7411
  13897.491  13897.500  0.500  1.654194  37.2964  66.5257  12.7228
  13898.377  13898.400  0.500  1.654648  37.303  66.5471  12.7211
  13899.322  13899.300  0.500  1.654109  37.3032  66.5407  12.7267
  13900.217  13900.200  0.500  1.652749  37.2943  66.5284  12.7417
  13901.103  13901.100  0.500  1.650399  37.287  66.5118  12.7685
  13902.006  13902.000  0.500  1.647397  37.2703  66.4925  12.8032
  13902.901  13902.900  0.500  1.643946  37.2477  66.4527  12.8397
  13903.822  13903.800  0.500  1.640053  37.2431  66.4419  12.8877
  13904.700  13904.700  0.500  1.636416  37.261  66.4746  12.9411
  13905.494  13905.500  0.500  1.633505  37.2666  66.4884  12.9815
  13908.494  13908.510  0.500  1.626296  37.2209  66.4053  13.059
  13911.723  13911.700  0.500  1.625511  37.2046  66.3812  13.0646
  13915.080  13915.060  0.500  1.630978  37.1826  66.3434  12.9859
  13918.608  13918.580  0.500  1.640125  37.1018  66.2063  12.8411
  13922.291  13922.280  0.500  1.647663  37.0936  66.1981  12.7431
  13926.170  13926.150  0.500  1.645743  37.0672  66.1477  12.7579
  13930.221  13930.200  0.500  1.634021  37.0476  66.1257  12.904
  13934.427  13934.410  0.500  1.624778  37.0277  66.0949  13.0178
  13938.806  13938.790  0.500  1.622332  36.9877  66.0337  13.0375
  13943.323  13943.350  0.500  1.621303  36.9428  65.9576  13.0359
  13948.090  13948.080  0.500  1.620762  36.8986  65.8762  13.0269
  13953.013  13952.980  0.500  1.620911  36.8541  65.7985  13.0096
  13958.050  13958.050  0.500  1.622241  36.7901  65.6997  12.9728
  13963.321  13963.290  0.500  1.624531  36.7177  65.5827  12.9201
  13968.715  13968.710  0.500  1.624440  36.5969  65.3669  12.8787
  13974.301  13974.290  0.500  1.619903  34.3654  61.3892  12.15
  13980.062  13980.050  0.500  1.614810  36.6616  65.4982  13.0295
  13985.974  13985.980  0.500  1.612041  36.6048  65.3956  13.0451
  13992.104  13992.080  0.500  1.611704  36.5428  65.2926  13.029
  13998.334  13998.350  0.500  1.610961  36.4762  65.192  13.0185
  14004.818  14004.790  0.500  1.608073  36.4196  65.0947  13.0367
  14011.386  14011.400  0.500  1.605418  36.3606  64.9971  13.0518
  14018.217  14018.190  0.500  1.605661  36.293  64.8869  13.0265
  14025.158  14025.150  0.500  1.608318  36.2217  64.7654  12.9676
  14032.295  14032.270  0.500  1.608207  36.1526  64.6491  12.9457
  14039.586  14039.570  0.500  1.604541  36.2  64.741  13.0118
  14047.074  14047.050  0.500  1.599832  36.1458  64.6597  13.0568
  14054.700  14054.690  0.500  1.594551  36.0763  64.5376  13.1011
  14062.507  14062.500  0.500  1.591569  35.9764  64.3709  13.1063
  14070.522  14070.490  0.500  1.587129  35.6171  63.7328  13.0341
  14078.676  14078.650  0.500  1.581887  35.9449  64.3357  13.2266
  14086.978  14086.970  0.500  1.582226  35.8489  64.1711  13.1883
  14095.490  14095.470  0.500  1.583436  35.7563  64.0124  13.1397
  14104.186  14104.150  0.500  1.583106  35.6324  63.799  13.1002
  14112.989  14112.990  0.500  1.581932  35.5073  63.5903  13.0727
  14122.003  14122.000  0.500  1.578736  34.6394  62.0425  12.7954
  14131.212  14131.190  0.500  1.572787  35.3718  63.3633  13.1457
  14140.556  14140.550  0.500  1.568167  35.3672  63.379  13.2099
  14150.078  14150.070  0.500  1.564629  35.2836  63.2274  13.225
  14159.806  14159.770  0.500  1.564307  35.1104  62.9357  13.1682
  14169.644  14169.650  0.500  1.564373  34.8225  62.4171  13.0589
  14179.707  14179.690  0.500  1.561172  35.067  62.8738  13.1966
  14189.916  14189.900  0.500  1.558948  34.9766  62.7273  13.1951
  14200.290  14200.290  0.500  1.555934  34.8825  62.5646  13.2007
  14210.821  14210.850  0.500  1.549775  34.7848  62.401  13.2475
  14221.605  14221.580  0.500  1.543004  34.6914  62.2414  13.3034
  14232.513  14232.480  0.500  1.539841  34.586  62.0784  13.3106
  14243.580  14243.550  0.500  1.540187  34.4857  61.8995  13.2676
  14254.823  14254.790  0.500  1.538391  34.3744  61.7139  13.2516
  14266.218  14266.210  0.500  1.534995  34.1512  61.3297  13.2139
  14277.819  14277.790  0.500  1.532896  34.2444  61.501  13.2787
  14289.590  14289.550  0.500  1.530265  34.1265  61.3114  13.2726
  14301.498  14301.480  0.500  1.526267  33.9871  61.068  13.2729
  14313.613  14313.580  0.500  1.521193  33.9042  60.9338  13.3111
  14325.875  14325.850  0.500  1.516400  33.7952  60.7465  13.3339
  14338.328  14338.290  0.500  1.513981  33.7041  60.5898  13.3317
  14350.930  14350.910  0.500  1.512012  33.5932  60.4094  13.3182
  14363.725  14363.690  0.500  1.508797  33.4805  60.229  13.3212
  14376.688  14376.650  0.500  1.505052  33.3175  59.9341  13.3057
  14389.820  14389.780  0.500  1.500885  33.2668  59.8669  13.3463
  14403.111  14403.080  0.500  1.496342  33.15  59.6641  13.3616
  14416.573  14416.550  0.500  1.492070  33.0432  59.4934  13.3805
  14430.233  14430.200  0.500  1.488733  32.9257  59.2866  13.3785
  14444.048  14444.010  0.500  1.486091  32.7151  58.9227  13.3316
  14458.062  14458.000  0.500  1.483430  32.7073  58.9195  13.3664
  14472.223  14472.160  0.500  1.480491  32.5967  58.7295  13.3625
  14486.522  14486.490  0.500  1.476610  32.4737  58.5263  13.368
  14501.080  14500.990  0.500  1.472268  32.3613  58.3374  13.3829
  14515.676  14515.660  0.500  1.467297  32.2016  58.0666  13.3871
  14530.579  14530.500  0.500  1.462308  32.1266  57.9438  13.4256
  14545.559  14545.520  0.500  1.458654  32.009  57.7471  13.4291
  14560.719  14560.700  0.500  1.454920  31.8842  57.5306  13.4288
  14576.069  14576.060  0.500  1.451089  31.7618  57.327  13.4326
  14591.609  14591.590  0.500  1.448413  31.6288  57.0964  13.4144
  14607.332  14607.290  0.500  1.445468  31.5134  56.9024  13.4082
  14623.202  14623.160  0.500  1.441100  31.3827  56.6826  13.4149
  14639.247  14639.210  0.500  1.435823  31.2558  56.4644  13.434
  14655.469  14655.420  0.500  1.431017  31.13  56.2563  13.4489
  14671.840  14671.810  0.500  1.426788  31.0048  56.0433  13.4548
  14688.417  14688.370  0.500  1.422880  30.867  55.8067  13.4505
  14705.137  14705.100  0.500  1.418955  30.7809  55.6567  13.4671
  14722.047  14722.000  0.500  1.414832  30.7123  55.5566  13.4984
  14733.383  14733.360  0.500  1.412415  30.6035  55.3671  13.4849

File: Pt-L1-PotassiumHexaChloroPlatinate.xdi
# XDI/1.0 BlueSky/1.10.0 BMM/2023-1.0-py310-tiled
# Beamline.name: BMM (06BM) -- Beamline for Materials Measurement (NIST)
# Beamline.xray_source: NSLS-II three-pole wiggler
# Beamline.collimation: paraboloid mirror, 5 nm Rh on 30 nm Pt
# Beamline.focusing: not in use
# Beamline.harmonic_rejection: flat mirror, Pt stripe, pitch = 7.0 mrad relative to beam
# Beamline.software: Bluesky 1.10.0, Ophyd 1.7.0, DataBroker 2.0.0b13, Python 3.10.8, 2023-1.0-py310-tiled
# Detector.I0: 10 cm N2
# Detector.I1: 25 cm N2
# Detector.I2: 25 cm N2
# Element.symbol: Pt
# Element.edge: L1
# Element.reference: Pt
# Element.reference_material: Pt foil
# Facility.name: NSLS-II
# Facility.energy: 3.0
# Facility.current: 400.4
# Facility.mode: top-off
# Facility.GUP: 301027
# Facility.SAF: 310583
# Facility.cycle: 2023-2
# Mono.name: Si(111)
# Mono.d_spacing: 3.13519
# Mono.encoder_resolution: 0.0000050 deg/ct
# Mono.angle_offset: 16.0754 deg
# Mono.scan_mode: pseudo channel cut
# Mono.scan_type: step
# Mono.direction: forward in energy
# Sample.name: K2PtCl6
# Sample.prep: powder on tape
# Sample.x: 119.711 mm
# Sample.y: 114.376 mm
# Sample.SDD_position: 205.000 mm
# Scan.experimenters: Bruce Ravel
# Scan.edge_energy: 13880.5
# Scan.start_time: 2023-06-27T19:27:06
# Scan.end_time: 2023-06-27T19:34:59
# Scan.transient_id: 85261
# Scan.uid: cd075b44-26c9-40e9-8b80-417f9fcfe55a
# Scan.plot_hint: ln(I0/It)  --  ln($5/$6)
# Column.1: energy eV
# Column.2: requested_energy eV
# Column.3: measurement_time seconds
# Column.4: xmu
# Column.5: I0 nA
# Column.6: It nA
# Column.7: Ir nA
# ///////////
# sample courtesy Simon Bare and Shelly Kelly
# -----------
# energy  requested_energy  measurement_time  xmu  I0  It  Ir
  13680.452  13680.500  0.500  0.558069  39.0651  22.3575  5.140692
  13710.580  13710.500  0.500  0.548826  38.88  22.4582  5.192960
  13740.545  13740.500  0.500  0.541114  38.6241  22.483  5.274271
  13770.577  13770.500  0.500  0.536577  38.3809  22.4431  5.272948
  13800.492  13800.500  0.500  0.531807  38.128  22.4018  5.296833
  13830.547  13830.500  0.500  0.525554  37.827  22.3643  5.339774
  13852.465  13852.500  0.500  0.521793  37.654  22.3459  5.350497
  13858.470  13858.500  0.500  0.521182  37.6065  22.3314  5.340455
  13864.462  13864.500  0.500  0.521235  37.5428  22.2924  5.320439
  13870.494  13870.500  0.500  0.522026  37.4682  22.2305  5.281301
  13871.343  13871.400  0.500  0.522328  37.4542  22.2155  5.272446
  13872.242  13872.300  0.500  0.522440  37.4289  22.198  5.261304
  13873.150  13873.200  0.500  0.522924  37.4281  22.1868  5.253833
  13874.067  13874.100  0.500  0.523242  37.3882  22.1561  5.236341
  13874.975  13875.000  0.500  0.523744  37.3785  22.1392  5.222713
  13875.883  13875.900  0.500  0.524442  37.3619  22.1139  5.205039
  13876.792  13876.800  0.500  0.525192  37.3704  22.1024  5.190238
  13877.683  13877.700  0.500  0.525977  37.3397  22.0669  5.164506
  13878.584  13878.600  0.500  0.526936  37.3291  22.0395  5.138307
  13879.492  13879.500  0.500  0.528152  37.3009  21.9961  5.104664
  13880.393  13880.400  0.500  0.529690  37.2736  21.9462  5.066731
  13881.285  13881.300  0.500  0.531320  37.2451  21.8937  5.023756
  13882.186  13882.200  0.500  0.533478  37.2068  21.8241  4.973446
  13883.061  13883.100  0.500  0.535806  37.1893  21.7631  4.922859
  13884.004  13884.000  0.500  0.538482  37.1961  21.7089  4.870512
  13884.914  13884.900  0.500  0.541462  37.1573  21.6217  4.811563
  13885.798  13885.800  0.500  0.544842  37.1406  21.5391  4.755014
  13886.708  13886.700  0.500  0.548892  37.1183  21.4391  4.695422
  13887.609  13887.600  0.500  0.553484  37.0818  21.32  4.630251
  13888.477  13888.500  0.500  0.558935  37.0566  21.1896  4.565130
  13889.387  13889.400  0.500  0.565883  37.0335  21.0298  4.490609
  13890.289  13890.300  0.500  0.574282  37.0065  20.8387  4.407330
  13891.183  13891.200  0.500  0.583360  36.9972  20.6452  4.324418
  13892.093  13892.100  0.500  0.593290  36.9723  20.4275  4.233909
  13893.012  13893.000  0.500  0.602690  36.9468  20.2224  4.148474
  13893.898  13893.900  0.500  0.610056  36.9018  20.0495  4.075011
  13894.800  13894.800  0.500  0.615509  36.894  19.9362  4.018646
  13895.702  13895.700  0.500  0.618795  36.85  19.8471  3.974045
  13896.588  13896.600  0.500  0.620330  36.825  19.8033  3.946415
  13897.483  13897.500  0.500  0.620844  36.8301  19.7958  3.933194
  13898.377  13898.400  0.500  0.620261  36.8224  19.8032  3.926752
  13899.297  13899.300  0.500  0.619821  36.8349  19.8187  3.929178
  13900.208  13900.200  0.500  0.619379  36.8371  19.8286  3.934138
  13901.112  13901.100  0.500  0.619256  36.9404  19.8867  3.951426
  13902.006  13902.000  0.500  0.619648  36.9397  19.8785  3.957455
  13902.918  13902.900  0.500  0.620087  36.9185  19.8584  3.967642
  13903.805  13903.800  0.500  0.620774  36.9117  19.8411  3.977808
  13904.683  13904.700  0.500  0.621768  36.8898  19.8096  3.986865
  13905.460  13905.500  0.500  0.622225  36.9169  19.8151  3.999752
  13908.519  13908.510  0.500  0.623099  36.9178  19.7983  4.033343
  13911.723  13911.700  0.500  0.622259  36.8675  19.7879  4.040232
  13915.063  13915.060  0.500  0.622787  36.8551  19.7708  4.020216
  13918.608  13918.580  0.500  0.622789  36.7941  19.738  3.977262
  13922.265  13922.280  0.500  0.619323  36.7711  19.7942  3.954914
  13926.179  13926.150  0.500  0.612762  36.7452  19.9105  3.975946
  13930.204  13930.200  0.500  0.605614  36.7243  20.0419  4.045241
  13934.410  13934.410  0.500  0.602350  36.7286  20.1098  4.103165
  13938.763  13938.790  0.500  0.602119  36.6931  20.095  4.112307
  13943.340  13943.350  0.500  0.603128  36.6423  20.0469  4.106817
  13948.064  13948.080  0.500  0.604487  36.6022  19.9978  4.098347
  13952.962  13952.980  0.500  0.606084  36.5491  19.9369  4.086105
  13958.237  13958.050  0.500  0.609205  36.4889  19.8421  4.062845
  13963.338  13963.290  0.500  0.613093  36.441  19.7391  4.032433
  13968.766  13968.710  0.500  0.615201  36.3415  19.6437  4.010153
  13974.352  13974.290  0.500  0.610342  33.8112  18.3651  3.765267
  13980.096  13980.050  0.500  0.602672  36.3658  19.9047  4.102040
  13986.034  13985.980  0.500  0.596863  36.3111  19.9906  4.131762
  13992.130  13992.080  0.500  0.593420  36.2557  20.0289  4.140974
  13998.385  13998.350  0.500  0.591481  36.2141  20.0448  4.148838
  14004.827  14004.790  0.500  0.589175  36.155  20.0582  4.162183
  14011.411  14011.400  0.500  0.587548  36.1059  20.0636  4.173598
  14018.200  14018.190  0.500  0.587466  36.0343  20.0255  4.165877
  14025.166  14025.150  0.500  0.589612  35.987  19.9563  4.140449
  14032.286  14032.270  0.500  0.591962  35.9216  19.8733  4.122710
  14039.586  14039.570  0.500  0.591988  35.8588  19.8381  4.128714
  14047.048  14047.050  0.500  0.589280  35.8081  19.8637  4.153286
  14054.692  14054.690  0.500  0.585533  35.7344  19.8972  4.181091
  14062.499  14062.500  0.500  0.581948  35.6277  19.9091  4.196914
  14070.496  14070.490  0.500  0.578693  35.3802  19.8352  4.199605
  14078.650  14078.650  0.500  0.575590  35.6523  20.0499  4.265957
  14086.996  14086.970  0.500  0.573295  35.5672  20.048  4.267172
  14095.499  14095.470  0.500  0.571409  35.492  20.0434  4.260625
  14104.151  14104.150  0.500  0.570595  35.3549  19.9822  4.249054
  14113.006  14112.990  0.500  0.570532  35.2568  19.928  4.240510
  14122.021  14122.000  0.500  0.569699  33.2459  18.8071  4.014891
  14131.186  14131.190  0.500  0.568665  35.1598  19.9104  4.274591
  14140.573  14140.550  0.500  0.566328  35.1287  19.9393  4.301099
  14150.096  14150.070  0.500  0.563323  35.0385  19.9479  4.317764
  14159.780  14159.770  0.500  0.560036  34.8275  19.8931  4.308147
  14169.653  14169.650  0.500  0.556333  34.1667  19.588  4.241345
  14179.725  14179.690  0.500  0.553433  34.8727  20.0508  4.353707
  14189.916  14189.900  0.500  0.550479  34.7805  20.057  4.366228
  14200.325  14200.290  0.500  0.548469  34.7022  20.0521  4.376342
  14210.873  14210.850  0.500  0.547033  34.6061  20.0253  4.397873
  14221.597  14221.580  0.500  0.545621  34.5325  20.0109  4.423111
  14232.495  14232.480  0.500  0.543832  34.4469  19.9971  4.436407
  14243.597  14243.550  0.500  0.541944  34.423  20.021  4.439229
  14254.832  14254.790  0.500  0.539593  34.3611  20.032  4.448544
  14266.245  14266.210  0.500  0.536769  34.2238  20.0084  4.458832
  14277.828  14277.790  0.500  0.533866  34.2189  20.0637  4.479455
  14289.564  14289.550  0.500  0.530485  34.118  20.0723  4.493121
  14301.489  14301.480  0.500  0.527659  34.0109  20.0659  4.509627
  14313.613  14313.580  0.500  0.524827  33.9326  20.0765  4.534251
  14325.866  14325.850  0.500  0.522382  33.842  20.0719  4.555052
  14338.301  14338.290  0.500  0.520054  33.75  20.064  4.563896
  14350.948  14350.910  0.500  0.517788  33.6654  20.0591  4.571922
  14363.707  14363.690  0.500  0.515182  33.5748  20.0573  4.584772
  14376.688  14376.650  0.500  0.512560  33.4104  20.0115  4.590016
  14389.783  14389.780  0.500  0.509757  33.3816  20.0504  4.619310
  14403.120  14403.080  0.500  0.506755  33.2748  20.0463  4.639023
  14416.591  14416.550  0.500  0.503437  33.1679  20.0483  4.657882
  14430.252  14430.200  0.500  0.500352  33.0764  20.0548  4.674695
  14444.057  14444.010  0.500  0.497349  32.9654  20.0476  4.686803
  14458.026  14458.000  0.500  0.494635  32.8803  20.0502  4.699651
  14472.196  14472.160  0.500  0.491883  32.7797  20.0439  4.710164
  14486.531  14486.490  0.500  0.489129  32.6652  20.029  4.723438
  14501.006  14500.990  0.500  0.486374  32.5643  20.0222  4.741923
  14515.685  14515.660  0.500  0.483398  32.4492  20.0109  4.763619
  14530.551  14530.500  0.500  0.480344  32.3505  20.0111  4.786741
  14545.541  14545.520  0.500  0.477211  32.2458  20.0089  4.803332
  14560.738  14560.700  0.500  0.473847  32.1507  20.0171  4.821713
  14576.096  14576.060  0.500  0.470618  32.0328  20.0082  4.838701
  14591.618  14591.590  0.500  0.467360  31.9201  20.0029  4.850355
  14607.342  14607.290  0.500  0.464180  31.8089  19.9967  4.860708
  14623.202  14623.160  0.500  0.460969  31.6977  19.9909  4.881080
  14639.247  14639.210  0.500  0.457930  31.5842  19.9799  4.903195
  14655.450  14655.420  0.500  0.454825  31.4816  19.9769  4.926630
  14671.849  14671.810  0.500  0.451942  31.369  19.963  4.942438
  14688.417  14688.370  0.500  0.448573  31.2168  19.9331  4.954366
  14705.146  14705.100  0.500  0.445360  31.1055  19.926  4.972809
  14722.047  14722.000  0.500  0.441932  31.0136  19.9353  4.994531
  14733.402  14733.360  0.500  0.439582  30.9243  19.9247  5.003056