Folder: webxdiviewer/xdidata/Pt (part 2)

File: Pt-L1-PtRu.xdi
# XDI/1.0 BlueSky/1.10.0 BMM/2023-1.0-py310-tiled
# Beamline.name: BMM (06BM) -- Beamline for Materials Measurement (NIST)
# Beamline.xray_source: NSLS-II three-pole wiggler
# Beamline.collimation: paraboloid mirror, 5 nm Rh on 30 nm Pt
# Beamline.focusing: not in use
# Beamline.harmonic_rejection: flat mirror, Pt stripe, pitch = 7.0 mrad relative to beam
# Beamline.software: Bluesky 1.10.0, Ophyd 1.7.0, DataBroker 2.0.0b13, Python 3.10.8, 2023-1.0-py310-tiled
# Detector.I0: 10 cm N2
# Detector.I1: 25 cm N2
# Detector.I2: 25 cm N2
# Element.symbol: Pt
# Element.edge: L1
# Element.reference: Pt
# Element.reference_material: Pt foil
# Facility.name: NSLS-II
# Facility.energy: 3.0
# Facility.current: 399.6
# Facility.mode: top-off
# Facility.GUP: 301027
# Facility.SAF: 310583
# Facility.cycle: 2023-2
# Mono.name: Si(111)
# Mono.d_spacing: 3.13519
# Mono.encoder_resolution: 0.0000050 deg/ct
# Mono.angle_offset: 16.0754 deg
# Mono.scan_mode: pseudo channel cut
# Mono.scan_type: step
# Mono.direction: forward in energy
# Sample.name: PtRu powder
# Sample.prep: powder on tape
# Sample.x: 119.711 mm
# Sample.y: 114.376 mm
# Sample.SDD_position: 205.000 mm
# Scan.experimenters: Bruce Ravel
# Scan.edge_energy: 13880.5
# Scan.start_time: 2023-06-27T19:19:16
# Scan.end_time: 2023-06-27T19:26:35
# Scan.transient_id: 85256
# Scan.uid: fa3e1b7f-6b81-4080-976c-1bb83c9eb0f0
# Scan.plot_hint: ln(I0/It)  --  ln($5/$6)
# Column.1: energy eV
# Column.2: requested_energy eV
# Column.3: measurement_time seconds
# Column.4: xmu
# Column.5: I0 nA
# Column.6: It nA
# Column.7: Ir nA
# ///////////
# BMM standards collection
# -----------
# energy  requested_energy  measurement_time  xmu  I0  It  Ir
  13680.468  13680.500  0.500  -0.281986  38.7253  51.3404  11.8115
  13710.522  13710.500  0.500  -0.284189  38.5337  51.1991  11.8475
  13741.477  13740.500  0.500  -0.286398  38.3083  51.0122  11.9737
  13770.536  13770.500  0.500  -0.288434  38.2744  51.0709  12.0069
  13800.525  13800.500  0.500  -0.290507  38.0318  50.8525  12.0305
  13830.539  13830.500  0.500  -0.292542  37.7476  50.5754  12.081
  13852.448  13852.500  0.500  -0.293719  37.5682  50.3943  12.0723
  13858.461  13858.500  0.500  -0.293890  37.6371  50.4953  12.0827
  13864.446  13864.500  0.500  -0.294042  37.5694  50.4122  12.0384
  13870.469  13870.500  0.500  -0.293968  37.5081  50.3261  11.9633
  13871.343  13871.400  0.500  -0.293866  37.4951  50.3036  11.9457
  13872.251  13872.300  0.500  -0.293883  37.4868  50.2932  11.93
  13873.175  13873.200  0.500  -0.293765  37.4626  50.255  11.9084
  13874.050  13874.100  0.500  -0.293717  37.4118  50.1844  11.8704
  13874.966  13875.000  0.500  -0.293506  37.4216  50.1869  11.8492
  13875.875  13875.900  0.500  -0.293319  37.3931  50.1393  11.8138
  13876.766  13876.800  0.500  -0.293221  37.3976  50.1405  11.7835
  13877.675  13877.700  0.500  -0.292817  37.3993  50.1224  11.7433
  13878.567  13878.600  0.500  -0.292547  37.372  50.0724  11.6866
  13879.459  13879.500  0.500  -0.292078  37.329  49.9912  11.618
  13880.359  13880.400  0.500  -0.291690  37.2954  49.9269  11.5413
  13881.293  13881.300  0.500  -0.291087  37.2538  49.8411  11.4515
  13882.177  13882.200  0.500  -0.290471  37.2466  49.8008  11.363
  13883.078  13883.100  0.500  -0.289778  37.2225  49.7342  11.2646
  13884.004  13884.000  0.500  -0.289062  37.204  49.6739  11.1591
  13884.897  13884.900  0.500  -0.288213  37.2024  49.6296  11.0612
  13885.807  13885.800  0.500  -0.287415  37.1741  49.5522  10.957
  13886.700  13886.700  0.500  -0.286586  37.1476  49.4758  10.8491
  13887.601  13887.600  0.500  -0.285887  37.1107  49.3922  10.7425
  13888.519  13888.500  0.500  -0.285028  37.0805  49.3096  10.6342
  13889.396  13889.400  0.500  -0.284223  37.0736  49.2608  10.5322
  13890.289  13890.300  0.500  -0.283453  37.0539  49.1967  10.4197
  13891.183  13891.200  0.500  -0.282472  37.0212  49.1051  10.2998
  13892.093  13892.100  0.500  -0.281340  36.9914  49.0101  10.1756
  13892.978  13893.000  0.500  -0.280454  36.9939  48.97  10.0677
  13893.881  13893.900  0.500  -0.279503  36.9507  48.8662  9.949383
  13894.800  13894.800  0.500  -0.278647  36.9239  48.7891  9.850372
  13895.702  13895.700  0.500  -0.277852  36.9  48.7187  9.768429
  13896.614  13896.600  0.500  -0.277221  36.8619  48.6377  9.702953
  13897.499  13897.500  0.500  -0.276512  36.857  48.5967  9.664938
  13898.402  13898.400  0.500  -0.276093  36.8656  48.5878  9.645629
  13899.322  13899.300  0.500  -0.275978  36.8542  48.5671  9.636188
  13900.217  13900.200  0.500  -0.275746  36.8625  48.5669  9.643104
  13901.095  13901.100  0.500  -0.275814  36.8604  48.5674  9.656022
  13901.990  13902.000  0.500  -0.275801  36.8443  48.5455  9.676477
  13902.893  13902.900  0.500  -0.275950  36.8374  48.5437  9.703473
  13903.805  13903.800  0.500  -0.276150  36.8196  48.53  9.733445
  13904.683  13904.700  0.500  -0.276431  36.806  48.5256  9.771061
  13905.469  13905.500  0.500  -0.276699  36.8269  48.5662  9.808083
  13908.527  13908.510  0.500  -0.277417  36.819  48.5906  9.903956
  13911.731  13911.700  0.500  -0.277859  36.7781  48.5581  9.921893
  13915.080  13915.060  0.500  -0.278017  36.7811  48.5697  9.885530
  13918.583  13918.580  0.500  -0.278150  36.7178  48.4926  9.781519
  13922.316  13922.280  0.500  -0.278103  36.7095  48.4793  9.695060
  13926.170  13926.150  0.500  -0.278506  36.6668  48.4425  9.678744
  13930.204  13930.200  0.500  -0.279288  36.6498  48.4579  9.787171
  13934.419  13934.410  0.500  -0.280201  36.6502  48.5027  9.901801
  13938.814  13938.790  0.500  -0.280684  36.6109  48.4741  9.928283
  13943.348  13943.350  0.500  -0.280960  36.5739  48.4385  9.931111
  13948.115  13948.080  0.500  -0.281008  36.5402  48.3962  9.927875
  13952.996  13952.980  0.500  -0.281177  36.4884  48.3357  9.912049
  13958.067  13958.050  0.500  -0.281155  36.4535  48.2885  9.896101
  13963.312  13963.290  0.500  -0.281137  36.3735  48.1816  9.849772
  13968.706  13968.710  0.500  -0.281394  36.3077  48.1068  9.828993
  13974.326  13974.290  0.500  -0.282053  33.7501  44.7475  9.179049
  13980.071  13980.050  0.500  -0.282740  36.2837  48.1398  9.928659
  13986.008  13985.980  0.500  -0.283267  36.2554  48.1275  9.955553
  13992.078  13992.080  0.500  -0.283877  36.2165  48.1053  9.956456
  13998.394  13998.350  0.500  -0.284427  36.1633  48.061  9.952296
  14004.792  14004.790  0.500  -0.284825  36.2023  48.132  9.993650
  14011.420  14011.400  0.500  -0.285370  36.1369  48.0713  10.0081
  14018.182  14018.190  0.500  -0.285967  36.0969  48.0467  10.0038
  14025.175  14025.150  0.500  -0.286354  36.0304  47.9767  9.963730
  14032.286  14032.270  0.500  -0.286733  35.9637  47.9061  9.942914
  14039.603  14039.570  0.500  -0.287137  35.9058  47.8483  9.965423
  14047.083  14047.050  0.500  -0.287627  35.8373  47.7804  9.997434
  14054.717  14054.690  0.500  -0.288102  35.775  47.7201  10.0397
  14062.533  14062.500  0.500  -0.288683  35.6822  47.624  10.0485
  14070.513  14070.490  0.500  -0.289412  35.423  47.3124  10.0225
  14078.650  14078.650  0.500  -0.290026  35.6878  47.6955  10.1598
  14087.013  14086.970  0.500  -0.290873  35.579  47.5903  10.1404
  14095.490  14095.470  0.500  -0.291495  35.4928  47.5045  10.1063
  14104.160  14104.150  0.500  -0.291982  35.4024  47.4066  10.0881
  14113.015  14112.990  0.500  -0.292662  35.2849  47.2814  10.0716
  14122.038  14122.000  0.500  -0.293043  33.2395  44.5576  9.519832
  14131.230  14131.190  0.500  -0.293864  35.2066  47.2333  10.1468
  14140.591  14140.550  0.500  -0.294377  35.1663  47.2033  10.1908
  14150.078  14150.070  0.500  -0.295292  35.0827  47.1343  10.2064
  14159.797  14159.770  0.500  -0.295956  34.8608  46.8673  10.1598
  14169.653  14169.650  0.500  -0.296556  34.1312  45.9139  9.947860
  14179.716  14179.690  0.500  -0.297291  34.9198  47.0093  10.2163
  14189.943  14189.900  0.500  -0.297884  34.8287  46.9145  10.2191
  14200.317  14200.290  0.500  -0.298759  34.7342  46.8281  10.228
  14210.891  14210.850  0.500  -0.299518  34.6507  46.751  10.2737
  14221.605  14221.580  0.500  -0.300268  34.5707  46.6781  10.3267
  14232.504  14232.480  0.500  -0.300972  34.4791  46.5871  10.3417
  14243.580  14243.550  0.500  -0.301804  34.4005  46.5197  10.3222
  14254.814  14254.790  0.500  -0.302580  34.288  46.4035  10.3128
  14266.245  14266.210  0.500  -0.303374  34.1548  46.26  10.3153
  14277.819  14277.790  0.500  -0.304134  34.1593  46.3012  10.3458
  14289.581  14289.550  0.500  -0.304927  34.0542  46.1954  10.3468
  14301.489  14301.480  0.500  -0.305763  33.936  46.0736  10.3608
  14313.595  14313.580  0.500  -0.306518  33.869  46.0174  10.3969
  14325.875  14325.850  0.500  -0.307306  33.7814  45.9346  10.4304
  14338.346  14338.290  0.500  -0.308276  33.6823  45.8442  10.4356
  14350.975  14350.910  0.500  -0.309026  33.5881  45.7503  10.4323
  14363.725  14363.690  0.500  -0.309904  33.4918  45.6592  10.4445
  14376.670  14376.650  0.500  -0.310628  33.3472  45.495  10.4435
  14389.838  14389.780  0.500  -0.311629  33.3038  45.4813  10.4842
  14403.120  14403.080  0.500  -0.312588  33.1982  45.3806  10.5054
  14416.573  14416.550  0.500  -0.313466  33.0972  45.2823  10.5269
  14430.215  14430.200  0.500  -0.314356  33.0062  45.1979  10.5451
  14444.029  14444.010  0.500  -0.315138  32.9009  45.089  10.5499
  14458.035  14458.000  0.500  -0.316241  32.8036  45.0052  10.5541
  14472.205  14472.160  0.500  -0.317120  32.7098  44.916  10.5623
  14486.541  14486.490  0.500  -0.318095  32.5979  44.806  10.5727
  14501.034  14500.990  0.500  -0.318951  32.508  44.7207  10.6009
  14515.667  14515.660  0.500  -0.319954  32.3842  44.5952  10.621
  14530.524  14530.500  0.500  -0.320814  32.2999  44.5173  10.6559
  14545.541  14545.520  0.500  -0.321829  32.1907  44.4119  10.6676
  14560.747  14560.700  0.500  -0.322766  32.0871  44.3104  10.682
  14576.106  14576.060  0.500  -0.323705  31.9763  44.1989  10.6949
  14591.646  14591.590  0.500  -0.324834  31.8705  44.1024  10.6995
  14607.332  14607.290  0.500  -0.325747  31.7624  43.993  10.7023
  14623.193  14623.160  0.500  -0.326791  31.649  43.8817  10.722
  14639.219  14639.210  0.500  -0.327671  31.536  43.7635  10.7466
  14655.450  14655.420  0.500  -0.328813  31.4308  43.6673  10.7735
  14671.840  14671.810  0.500  -0.329755  31.3187  43.5526  10.7914
  14688.408  14688.370  0.500  -0.330703  31.2846  43.5466  10.8308
  14705.146  14705.100  0.500  -0.331863  31.1694  43.4364  10.8445
  14722.047  14722.000  0.500  -0.332748  31.071  43.3376  10.8642
  14733.383  14733.360  0.500  -0.333722  30.9789  43.2513  10.8668

File: Pt-L1-TetraammineplatinumChloride.xdi
# XDI/1.0 BlueSky/1.10.0 BMM/2023-1.0-py310-tiled
# Beamline.name: BMM (06BM) -- Beamline for Materials Measurement (NIST)
# Beamline.xray_source: NSLS-II three-pole wiggler
# Beamline.collimation: paraboloid mirror, 5 nm Rh on 30 nm Pt
# Beamline.focusing: not in use
# Beamline.harmonic_rejection: flat mirror, Pt stripe, pitch = 7.0 mrad relative to beam
# Beamline.software: Bluesky 1.10.0, Ophyd 1.7.0, DataBroker 2.0.0b13, Python 3.10.8, 2023-1.0-py310-tiled
# Detector.I0: 10 cm N2
# Detector.I1: 25 cm N2
# Detector.I2: 25 cm N2
# Element.symbol: Pt
# Element.edge: L1
# Element.reference: Pt
# Element.reference_material: Pt foil
# Facility.name: NSLS-II
# Facility.energy: 3.0
# Facility.current: 399.7
# Facility.mode: top-off
# Facility.GUP: 301027
# Facility.SAF: 310583
# Facility.cycle: 2023-2
# Mono.name: Si(111)
# Mono.d_spacing: 3.13519
# Mono.encoder_resolution: 0.0000050 deg/ct
# Mono.angle_offset: 16.0754 deg
# Mono.scan_mode: pseudo channel cut
# Mono.scan_type: step
# Mono.direction: forward in energy
# Sample.name: Pt(NH3)4Cl2.xH2O
# Sample.prep: powder on tape
# Sample.x: 119.711 mm
# Sample.y: 114.376 mm
# Sample.SDD_position: 205.000 mm
# Scan.experimenters: Bruce Ravel
# Scan.edge_energy: 13880.5
# Scan.start_time: 2023-06-27T19:35:29
# Scan.end_time: 2023-06-27T19:43:24
# Scan.transient_id: 85266
# Scan.uid: c1ef86cb-d3c3-4668-b9ef-ec6bba6c039c
# Scan.plot_hint: ln(I0/It)  --  ln($5/$6)
# Column.1: energy eV
# Column.2: requested_energy eV
# Column.3: measurement_time seconds
# Column.4: xmu
# Column.5: I0 nA
# Column.6: It nA
# Column.7: Ir nA
# ///////////
# sample courtesy Simon Bare and Shelly Kelly
# -----------
# energy  requested_energy  measurement_time  xmu  I0  It  Ir
  13680.436  13680.500  0.500  0.498839  38.7809  23.5491  5.410824
  13710.555  13710.500  0.500  0.493695  38.5993  23.5597  5.445618
  13740.578  13740.500  0.500  0.488477  38.3551  23.5331  5.518318
  13770.577  13770.500  0.500  0.482670  38.0976  23.5113  5.521330
  13800.476  13800.500  0.500  0.477043  37.8546  23.4931  5.552293
  13830.522  13830.500  0.500  0.472396  37.5787  23.4306  5.590318
  13852.457  13852.500  0.500  0.470680  37.3918  23.3541  5.586863
  13858.470  13858.500  0.500  0.470883  37.3361  23.3145  5.571974
  13864.446  13864.500  0.500  0.471568  37.2915  23.2708  5.549552
  13870.469  13870.500  0.500  0.473686  37.2266  23.1811  5.503262
  13871.326  13871.400  0.500  0.474132  37.2272  23.1711  5.497352
  13872.242  13872.300  0.500  0.474669  37.1954  23.1389  5.481616
  13873.133  13873.200  0.500  0.475221  37.2718  23.1736  5.481522
  13874.058  13874.100  0.500  0.476190  37.2426  23.1331  5.464510
  13874.966  13875.000  0.500  0.477086  37.2402  23.1109  5.449010
  13875.892  13875.900  0.500  0.478116  37.23  23.0808  5.429425
  13876.792  13876.800  0.500  0.479493  37.214  23.0391  5.405550
  13877.700  13877.700  0.500  0.481054  37.1906  22.9887  5.376136
  13878.584  13878.600  0.500  0.482995  37.171  22.932  5.342308
  13879.476  13879.500  0.500  0.485325  37.1437  22.8619  5.302588
  13880.368  13880.400  0.500  0.487935  37.1248  22.7907  5.258399
  13881.277  13881.300  0.500  0.491401  37.082  22.6856  5.201836
  13882.177  13882.200  0.500  0.495717  37.0576  22.573  5.139472
  13883.078  13883.100  0.500  0.500503  37.0479  22.4594  5.075387
  13883.996  13884.000  0.500  0.506270  37.0336  22.3217  5.003987
  13884.897  13884.900  0.500  0.512585  37.0164  22.1708  4.929909
  13885.807  13885.800  0.500  0.518998  36.9873  22.0118  4.853798
  13886.708  13886.700  0.500  0.525019  36.9785  21.8744  4.785466
  13887.601  13887.600  0.500  0.530169  36.9549  21.7482  4.719441
  13888.486  13888.500  0.500  0.534685  36.9124  21.6253  4.652514
  13889.379  13889.400  0.500  0.538949  36.8967  21.5241  4.590757
  13890.298  13890.300  0.500  0.543804  36.8854  21.4133  4.522985
  13891.183  13891.200  0.500  0.548845  36.8561  21.2887  4.454020
  13892.118  13892.100  0.500  0.554495  36.8183  21.147  4.376449
  13892.995  13893.000  0.500  0.560379  36.7943  21.0093  4.305489
  13893.898  13893.900  0.500  0.566402  36.7569  20.8619  4.234733
  13894.800  13894.800  0.500  0.572240  36.746  20.7343  4.174627
  13895.677  13895.700  0.500  0.577198  36.7274  20.6213  4.125359
  13896.605  13896.600  0.500  0.581579  36.7135  20.5234  4.086434
  13897.499  13897.500  0.500  0.584769  36.7038  20.4526  4.058670
  13898.385  13898.400  0.500  0.587362  36.6932  20.3938  4.040698
  13899.314  13899.300  0.500  0.589066  36.7025  20.3642  4.033713
  13900.208  13900.200  0.500  0.590497  36.6911  20.3288  4.030356
  13901.112  13901.100  0.500  0.591620  36.6891  20.3049  4.031988
  13902.006  13902.000  0.500  0.592899  36.7036  20.2869  4.038571
  13902.901  13902.900  0.500  0.594150  36.6596  20.2373  4.041623
  13903.788  13903.800  0.500  0.595112  36.6328  20.203  4.048485
  13904.675  13904.700  0.500  0.595860  36.6273  20.1849  4.060255
  13905.486  13905.500  0.500  0.596175  36.6605  20.1968  4.075828
  13908.536  13908.510  0.500  0.595299  36.6363  20.2012  4.112885
  13911.706  13911.700  0.500  0.592329  36.5999  20.2411  4.128944
  13915.080  13915.060  0.500  0.588476  36.6164  20.3285  4.129905
  13918.600  13918.580  0.500  0.581895  36.5537  20.4276  4.113412
  13922.291  13922.280  0.500  0.574990  36.5133  20.5464  4.102915
  13926.162  13926.150  0.500  0.570637  36.4914  20.6236  4.115535
  13930.204  13930.200  0.500  0.569038  36.4726  20.646  4.164446
  13934.436  13934.410  0.500  0.569056  36.4645  20.6411  4.209003
  13938.806  13938.790  0.500  0.570081  36.43  20.6004  4.213170
  13943.357  13943.350  0.500  0.571340  36.3973  20.556  4.208074
  13948.081  13948.080  0.500  0.571723  36.3466  20.5196  4.203112
  13952.996  13952.980  0.500  0.572197  36.3287  20.4997  4.198529
  13958.050  13958.050  0.500  0.573292  36.2593  20.4381  4.182483
  13963.304  13963.290  0.500  0.574664  36.1888  20.3705  4.157550
  13968.681  13968.710  0.500  0.574788  36.1129  20.3252  4.146338
  13974.233  13974.290  0.500  0.572051  33.6009  18.9632  3.885163
  13980.028  13980.050  0.500  0.568810  36.1115  20.4463  4.211127
  13985.948  13985.980  0.500  0.565307  36.0672  20.4929  4.232713
  13992.455  13992.080  0.500  0.562646  36.0296  20.5261  4.241278
  13998.325  13998.350  0.500  0.560818  36.076  20.5901  4.255901
  14004.784  14004.790  0.500  0.559296  36.0229  20.5911  4.268942
  14011.386  14011.400  0.500  0.557841  35.9558  20.5827  4.279175
  14018.191  14018.190  0.500  0.556596  35.9284  20.5926  4.281219
  14025.166  14025.150  0.500  0.555674  35.846  20.5643  4.264007
  14032.269  14032.270  0.500  0.554939  35.7905  20.5476  4.258094
  14039.586  14039.570  0.500  0.554628  35.7221  20.5147  4.265357
  14047.048  14047.050  0.500  0.554058  35.6603  20.4909  4.281884
  14054.700  14054.690  0.500  0.552666  35.5971  20.4831  4.302635
  14062.499  14062.500  0.500  0.550891  35.4992  20.463  4.312368
  14070.488  14070.490  0.500  0.548924  35.2356  20.3511  4.304559
  14078.659  14078.650  0.500  0.546968  35.5252  20.5585  4.372294
  14086.970  14086.970  0.500  0.544728  35.4389  20.5546  4.373189
  14095.464  14095.470  0.500  0.542664  35.3658  20.5545  4.366836
  14104.160  14104.150  0.500  0.540424  35.2361  20.5251  4.362093
  14112.989  14112.990  0.500  0.538173  35.1273  20.5078  4.361624
  14122.012  14122.000  0.500  0.536666  33.2032  19.4137  4.142522
  14131.177  14131.190  0.500  0.534454  35.0483  20.5379  4.405593
  14140.573  14140.550  0.500  0.532888  35.0208  20.554  4.431414
  14150.087  14150.070  0.500  0.531339  34.9281  20.5313  4.441375
  14159.789  14159.770  0.500  0.529573  34.7045  20.436  4.423892
  14169.644  14169.650  0.500  0.527761  34.0889  20.1099  4.350986
  14179.689  14179.690  0.500  0.525332  34.7893  20.5729  4.465498
  14189.925  14189.900  0.500  0.523056  34.6758  20.5526  4.471024
  14200.308  14200.290  0.500  0.520709  34.5874  20.5483  4.482414
  14210.873  14210.850  0.500  0.518528  34.5054  20.5444  4.510508
  14221.588  14221.580  0.500  0.515873  34.431  20.5546  4.540943
  14232.478  14232.480  0.500  0.513550  34.3337  20.5442  4.554546
  14243.571  14243.550  0.500  0.511406  34.2352  20.5292  4.551400
  14254.823  14254.790  0.500  0.509181  34.1457  20.5211  4.553688
  14266.245  14266.210  0.500  0.507099  34.0009  20.4767  4.560283
  14277.810  14277.790  0.500  0.505020  34.019  20.5303  4.580592
  14289.573  14289.550  0.500  0.502722  33.9177  20.5162  4.588337
  14301.507  14301.480  0.500  0.500434  33.814  20.5003  4.604433
  14313.604  14313.580  0.500  0.497993  33.7373  20.5038  4.627055
  14325.848  14325.850  0.500  0.495656  33.6407  20.493  4.647081
  14338.301  14338.290  0.500  0.493004  33.5445  20.4886  4.657494
  14350.939  14350.910  0.500  0.490469  33.4722  20.4963  4.668431
  14363.716  14363.690  0.500  0.487634  33.3784  20.4969  4.683333
  14376.679  14376.650  0.500  0.485075  33.2175  20.4504  4.689161
  14389.802  14389.780  0.500  0.482287  33.1715  20.4791  4.713916
  14403.093  14403.080  0.500  0.479758  33.078  20.4731  4.733743
  14416.582  14416.550  0.500  0.477204  32.983  20.4665  4.752446
  14430.215  14430.200  0.500  0.474552  32.883  20.4586  4.766579
  14444.002  14444.010  0.500  0.472031  32.771  20.4404  4.776237
  14458.016  14458.000  0.500  0.469488  32.6916  20.4428  4.787517
  14472.168  14472.160  0.500  0.466697  32.5884  20.4352  4.798632
  14486.541  14486.490  0.500  0.463998  32.4905  20.4289  4.815466
  14501.043  14500.990  0.500  0.461079  32.3889  20.4245  4.835161
  14515.713  14515.660  0.500  0.458249  32.2756  20.4108  4.855780
  14530.542  14530.500  0.500  0.455471  32.1828  20.4087  4.877748
  14545.541  14545.520  0.500  0.452539  32.0944  20.4124  4.897848
  14560.710  14560.700  0.500  0.449717  31.975  20.3939  4.911893
  14576.087  14576.060  0.500  0.446827  31.8594  20.379  4.925581
  14591.628  14591.590  0.500  0.443730  31.7562  20.376  4.938137
  14607.351  14607.290  0.500  0.440761  31.6476  20.3667  4.948549
  14623.211  14623.160  0.500  0.437964  31.537  20.3524  4.967370
  14639.238  14639.210  0.500  0.434983  31.5193  20.4017  5.004181
  14655.450  14655.420  0.500  0.432112  31.4042  20.3856  5.024535
  14671.868  14671.810  0.500  0.428993  31.2958  20.3787  5.042945
  14688.399  14688.370  0.500  0.425945  31.1531  20.3478  5.055615
  14705.118  14705.100  0.500  0.422734  31.053  20.3476  5.075128
  14722.037  14722.000  0.500  0.419799  30.9525  20.3413  5.092474
  14733.383  14733.360  0.500  0.417640  30.875  20.3343  5.102832