Folder: webxdiviewer/xdidata/Rb

Note: xdidata/README.md
# bmm-standards
A pretty webpage for BMM's collection of common XAFS materials

[BMM's common materials collection](./BMM-standards.html)

Plotting of the data will happen soon.

Periodic table adapted from [some guy named Daniel](https://codepen.io/gooseofmusic/pen/PjKdNQ)

[This](https://www.coderstool.com/scss-to-css) is a helpful tool for
dealing with Sassy CSS.

File: Rb-K-RubidiumCarbonate.xdi
# XDI/1.0 BlueSky/1.10.0 BMM/2023-1.0-py310-tiled
# Beamline.name: BMM (06BM) -- Beamline for Materials Measurement (NIST)
# Beamline.xray_source: NSLS-II three-pole wiggler
# Beamline.collimation: paraboloid mirror, 5 nm Rh on 30 nm Pt
# Beamline.focusing: not in use
# Beamline.harmonic_rejection: flat mirror, Pt stripe, pitch = 7.0 mrad relative to beam
# Beamline.software: Bluesky 1.10.0, Ophyd 1.7.0, DataBroker 2.0.0b13, Python 3.10.8, 2023-1.0-py310-tiled
# Detector.I0: 10 cm N2
# Detector.I1: 25 cm N2
# Detector.I2: 25 cm N2
# Element.symbol: Rb
# Element.edge: K
# Element.reference: Rb
# Element.reference_material: RbCO3
# Facility.name: NSLS-II
# Facility.energy: 3.0
# Facility.current: 400.3
# Facility.mode: top-off
# Facility.GUP: 301027
# Facility.SAF: 310583
# Facility.cycle: 2023-2
# Mono.name: Si(111)
# Mono.d_spacing: 3.13519
# Mono.encoder_resolution: 0.0000050 deg/ct
# Mono.angle_offset: 16.0754 deg
# Mono.scan_mode: pseudo channel cut
# Mono.scan_type: step
# Mono.direction: forward in energy
# Sample.name: RbCO3
# Sample.prep: PEG pellet
# Sample.x: 109.138 mm
# Sample.y: 153.150 mm
# Sample.SDD_position: 205.000 mm
# Scan.experimenters: Bruce Ravel
# Scan.edge_energy: 15199.7
# Scan.start_time: 2023-05-28T21:26:24
# Scan.end_time: 2023-05-28T21:33:50
# Scan.transient_id: 79029
# Scan.uid: 443654f0-7c7c-4ede-a9e6-600d3d982c80
# Scan.plot_hint: ln(It/Ir)  --  ln($6/$7)
# Column.1: energy eV
# Column.2: requested_energy eV
# Column.3: measurement_time seconds
# Column.4: xmu
# Column.5: I0 nA
# Column.6: It nA
# Column.7: Ir nA
# ///////////
# sample courtesy Martin Stennett, University of Sheffield
# -----------
# energy  requested_energy  measurement_time  xmu  I0  It  Ir
  14999.605  14999.700  0.500  0.319689  27.7322  50.3553  36.5769
  15029.785  15029.700  0.500  0.318013  27.5742  50.0924  36.4469
  15059.712  15059.700  0.500  0.316708  27.4152  49.827  36.3011
  15089.689  15089.700  0.500  0.315598  27.2445  49.5363  36.1294
  15119.727  15119.700  0.500  0.314480  27.081  49.2563  35.9654
  15149.715  15149.700  0.500  0.314528  26.8976  48.9391  35.7321
  15171.630  15171.700  0.500  0.317371  26.7778  48.7375  35.4839
  15177.645  15177.700  0.500  0.319612  26.7521  48.6983  35.376
  15183.665  15183.700  0.500  0.323016  26.7064  48.6196  35.1988
  15189.620  15189.700  0.500  0.330353  26.6697  48.5617  34.8999
  15190.518  15190.600  0.500  0.331994  26.6681  48.5574  34.8395
  15191.417  15191.500  0.500  0.333870  26.6775  48.5747  34.7866
  15192.366  15192.400  0.500  0.335946  26.6562  48.5303  34.6828
  15193.245  15193.300  0.500  0.338600  26.6437  48.5157  34.5804
  15194.174  15194.200  0.500  0.341790  26.6454  48.5172  34.4714
  15195.074  15195.100  0.500  0.345400  26.6264  48.4766  34.3184
  15195.983  15196.000  0.500  0.349991  26.6232  48.4802  34.1637
  15196.903  15196.900  0.500  0.355799  26.6132  48.4588  33.9509
  15197.782  15197.800  0.500  0.362629  26.6036  48.439  33.7061
  15198.712  15198.700  0.500  0.372064  26.6079  48.4513  33.398
  15199.581  15199.600  0.500  0.383749  26.5964  48.4318  32.9967
  15200.461  15200.500  0.500  0.400411  26.5938  48.429  32.4496
  15201.401  15201.400  0.500  0.426355  26.5905  48.4221  31.6141
  15202.281  15202.300  0.500  0.464039  26.5811  48.4073  30.4356
  15203.201  15203.200  0.500  0.525668  26.5669  48.38  28.6003
  15204.071  15204.100  0.500  0.611072  26.5598  48.3725  26.2551
  15204.971  15205.000  0.500  0.719113  26.5495  48.3573  23.5589
  15205.892  15205.900  0.500  0.824702  26.5556  48.3732  21.2051
  15206.772  15206.800  0.500  0.904833  26.5442  48.349  19.5625
  15207.693  15207.700  0.500  0.955538  26.5259  48.3246  18.5859
  15208.604  15208.600  0.500  0.977813  26.5286  48.3301  18.1785
  15209.495  15209.500  0.500  0.982474  26.5285  48.3305  18.0941
  15210.406  15210.400  0.500  0.981628  26.5097  48.2974  18.0971
  15211.307  15211.300  0.500  0.983881  26.5618  48.388  18.0902
  15212.188  15212.200  0.500  0.992450  26.5797  48.4276  17.9505
  15213.120  15213.100  0.500  1.003362  26.5773  48.4186  17.7524
  15214.001  15214.000  0.500  1.007240  26.564  48.3941  17.6748
  15214.892  15214.900  0.500  0.997461  26.5614  48.3864  17.8456
  15215.824  15215.800  0.500  0.975368  26.5534  48.378  18.2411
  15216.716  15216.700  0.500  0.947799  26.5424  48.3559  18.7424
  15217.577  15217.600  0.500  0.922646  26.5472  48.3594  19.2212
  15218.510  15218.500  0.500  0.900062  26.5341  48.3485  19.6558
  15219.391  15219.400  0.500  0.883228  26.5337  48.3404  19.9861
  15220.263  15220.300  0.500  0.870457  26.5165  48.31  20.2303
  15221.186  15221.200  0.500  0.860613  26.5082  48.2953  20.4242
  15222.078  15222.100  0.500  0.853224  26.5059  48.289  20.573
  15222.980  15223.000  0.500  0.848227  26.5032  48.2873  20.6753
  15223.914  15223.900  0.500  0.846356  26.4794  48.2415  20.6944
  15224.705  15224.700  0.500  0.847559  26.4817  48.253  20.6745
  15227.748  15227.710  0.500  0.864264  26.4762  48.2423  20.3275
  15230.905  15230.900  0.500  0.893432  26.451  48.1973  19.7247
  15234.276  15234.260  0.500  0.920811  26.4358  48.1701  19.1811
  15237.791  15237.780  0.500  0.928851  26.4111  48.1255  19.0099
  15241.510  15241.480  0.500  0.928856  26.3988  48.1107  19.004
  15245.374  15245.350  0.500  0.912570  26.3641  48.0476  19.2907
  15249.403  15249.400  0.500  0.896241  26.323  47.9766  19.5793
  15253.628  15253.610  0.500  0.886778  26.3192  47.9679  19.7619
  15258.007  15257.990  0.500  0.881811  26.3113  47.9523  19.8538
  15262.542  15262.550  0.500  0.880950  26.2641  47.8796  19.8408
  15267.315  15267.280  0.500  0.884848  26.2353  47.827  19.7419
  15272.202  15272.180  0.500  0.889086  26.2042  47.7753  19.6371
  15277.246  15277.250  0.500  0.891167  26.1678  47.7131  19.5708
  15282.508  15282.490  0.500  0.890180  26.1423  47.6653  19.5705
  15287.907  15287.910  0.500  0.886561  26.1114  47.6161  19.6212
  15293.504  15293.490  0.500  0.881054  26.0767  47.5553  19.7044
  15299.290  15299.250  0.500  0.875170  26.0311  47.472  19.7859
  15305.182  15305.180  0.500  0.871384  26.0205  47.461  19.8564
  15311.305  15311.280  0.500  0.870481  25.9726  47.3714  19.8368
  15317.545  15317.550  0.500  0.871199  25.9468  47.3325  19.8063
  15324.017  15323.990  0.500  0.871439  25.9153  47.2816  19.7802
  15330.598  15330.600  0.500  0.870815  25.8681  47.1962  19.7568
  15337.410  15337.390  0.500  0.869747  25.8285  47.1313  19.7507
  15344.363  15344.350  0.500  0.869295  25.664  46.8364  19.636
  15351.517  15351.470  0.500  0.868309  25.7777  47.0449  19.7429
  15358.782  15358.770  0.500  0.866200  25.7274  46.9578  19.7479
  15366.281  15366.250  0.500  0.864888  25.6646  46.8474  19.7274
  15373.881  15373.890  0.500  0.864078  25.6361  46.8027  19.7245
  15381.705  15381.700  0.500  0.862934  25.5852  46.7098  19.7079
  15389.714  15389.690  0.500  0.862197  25.5234  46.6119  19.6811
  15397.835  15397.850  0.500  0.861527  25.4985  46.5563  19.6708
  15406.173  15406.170  0.500  0.860216  25.4446  46.4689  19.6596
  15414.655  15414.670  0.500  0.858612  25.3872  46.3635  19.6465
  15423.365  15423.350  0.500  0.856859  25.33  46.2629  19.6383
  15432.189  15432.190  0.500  0.855307  25.2935  46.2114  19.6469
  15441.190  15441.200  0.500  0.853609  25.2394  46.1132  19.6385
  15450.411  15450.390  0.500  0.852294  25.173  45.9985  19.6154
  15459.799  15459.750  0.500  0.851114  25.1461  45.9555  19.6202
  15469.305  15469.270  0.500  0.849792  25.1322  45.9351  19.6374
  15479.010  15478.970  0.500  0.848580  25.1038  45.8876  19.6409
  15488.875  15488.850  0.500  0.847385  25.0713  45.837  19.6427
  15498.931  15498.890  0.500  0.846032  25.016  45.737  19.6264
  15509.127  15509.100  0.500  0.844642  24.9547  45.6282  19.6069
  15519.506  15519.490  0.500  0.843316  24.9029  45.5403  19.5952
  15530.035  15530.050  0.500  0.841828  24.8269  45.414  19.5699
  15540.811  15540.780  0.500  0.840324  24.781  45.3318  19.5639
  15551.730  15551.680  0.500  0.838704  24.7236  45.23  19.5516
  15562.738  15562.750  0.500  0.837556  24.6686  45.1461  19.5377
  15574.028  15573.990  0.500  0.836127  24.6063  45.0307  19.5157
  15585.450  15585.410  0.500  0.834391  24.5425  44.9212  19.502
  15596.997  15596.990  0.500  0.832854  24.4731  44.8002  19.4794
  15608.763  15608.750  0.500  0.831193  24.4106  44.6898  19.4637
  15620.718  15620.680  0.500  0.829705  24.3424  44.5766  19.4433
  15632.809  15632.780  0.500  0.827911  24.2938  44.4939  19.4421
  15645.037  15645.050  0.500  0.826196  24.2184  44.3568  19.4155
  15657.510  15657.490  0.500  0.824694  24.1548  44.2455  19.3959
  15670.153  15670.110  0.500  0.823055  24.0232  44.0144  19.3262
  15682.925  15682.890  0.500  0.821165  23.9977  43.9697  19.3431
  15695.944  15695.850  0.500  0.819451  23.9291  43.8579  19.327
  15709.049  15708.980  0.500  0.817476  23.8705  43.7511  19.3181
  15722.339  15722.280  0.500  0.815929  23.8076  43.6526  19.3044
  15735.826  15735.750  0.500  0.814012  23.7401  43.5294  19.2869
  15749.422  15749.400  0.500  0.812307  23.6722  43.4101  19.2668
  15763.249  15763.210  0.500  0.810367  23.5959  43.2771  19.2451
  15777.242  15777.200  0.500  0.808496  23.5262  43.1599  19.2289
  15791.391  15791.360  0.500  0.806602  23.4525  43.0268  19.206
  15805.697  15805.690  0.500  0.804662  23.37  42.8861  19.1803
  15820.260  15820.190  0.500  0.802848  23.2978  42.7547  19.1563
  15834.871  15834.860  0.500  0.801028  23.2184  42.6257  19.1333
  15849.752  15849.700  0.500  0.798942  23.1438  42.4861  19.1104
  15864.793  15864.720  0.500  0.797177  23.0667  42.3575  19.0863
  15879.929  15879.900  0.500  0.795113  22.9913  42.2232  19.065
  15895.282  15895.260  0.500  0.793174  22.9106  42.0821  19.0382
  15910.921  15910.790  0.500  0.791142  22.7456  41.789  18.9441
  15926.501  15926.490  0.500  0.789120  22.744  41.7846  18.9804
  15942.357  15942.360  0.500  0.787178  22.654  41.6372  18.9502
  15958.446  15958.410  0.500  0.785107  22.5876  41.5164  18.9344
  15974.701  15974.620  0.500  0.783014  22.4887  41.3467  18.8965
  15991.058  15991.010  0.500  0.781078  22.4216  41.2321  18.8807
  16007.594  16007.570  0.500  0.779116  22.3348  41.077  18.8466
  16024.344  16024.300  0.500  0.777113  22.0554  40.5686  18.6506
  16041.254  16041.200  0.500  0.774920  22.1583  40.7656  18.7824
  16052.577  16052.560  0.500  0.773469  22.1063  40.6748  18.7677