Folder: webxdiviewer/xdidata/Re (part 2)

File: Re-L1-RheniumOxide.xdi
# XDI/1.0 BlueSky/1.10.0 BMM/2023-1.0-py310-tiled
# Beamline.name: BMM (06BM) -- Beamline for Materials Measurement (NIST)
# Beamline.xray_source: NSLS-II three-pole wiggler
# Beamline.collimation: paraboloid mirror, 5 nm Rh on 30 nm Pt
# Beamline.focusing: not in use
# Beamline.harmonic_rejection: flat mirror, Pt stripe, pitch = 7.0 mrad relative to beam
# Beamline.software: Bluesky 1.10.0, Ophyd 1.7.0, DataBroker 2.0.0b13, Python 3.10.8, 2023-1.0-py310-tiled
# Detector.I0: 10 cm N2
# Detector.I1: 25 cm N2
# Detector.I2: 25 cm N2
# Element.symbol: Re
# Element.edge: L1
# Element.reference: Re
# Element.reference_material: ReO2
# Facility.name: NSLS-II
# Facility.energy: 3.0
# Facility.current: 400.7
# Facility.mode: top-off
# Facility.GUP: 301027
# Facility.SAF: 310583
# Facility.cycle: 2023-2
# Mono.name: Si(111)
# Mono.d_spacing: 3.13519
# Mono.encoder_resolution: 0.0000050 deg/ct
# Mono.angle_offset: 16.0754 deg
# Mono.scan_mode: pseudo channel cut
# Mono.scan_type: step
# Mono.direction: forward in energy
# Sample.name: ReO2
# Sample.prep: powder on tape
# Sample.x: 109.138 mm
# Sample.y: 153.150 mm
# Sample.SDD_position: 205.000 mm
# Scan.experimenters: Bruce Ravel
# Scan.edge_energy: 12526.7
# Scan.start_time: 2023-05-28T19:51:48
# Scan.end_time: 2023-05-28T19:59:31
# Scan.transient_id: 78966
# Scan.uid: 7d4191fd-b95f-4834-b987-4d8f362ef69e
# Scan.plot_hint: ln(It/Ir)  --  ln($6/$7)
# Column.1: energy eV
# Column.2: requested_energy eV
# Column.3: measurement_time seconds
# Column.4: xmu
# Column.5: I0 nA
# Column.6: It nA
# Column.7: Ir nA
# ///////////
# Welcome to BMM
# -----------
# energy  requested_energy  measurement_time  xmu  I0  It  Ir
  12326.705  12326.700  0.500  3.250028  56.041  96.1769  3.729079
  12356.764  12356.700  0.500  3.229571  55.5826  95.483  3.778687
  12386.698  12386.700  0.500  3.213470  55.3308  95.1366  3.826094
  12416.732  12416.700  0.500  3.194813  54.9127  94.5035  3.872202
  12446.705  12446.700  0.500  3.183797  54.6007  94.0491  3.896272
  12476.716  12476.700  0.500  3.168220  54.2108  93.4662  3.932914
  12498.652  12498.700  0.500  3.156202  53.9419  93.0637  3.963322
  12504.639  12504.700  0.500  3.154437  53.8557  92.9354  3.964848
  12510.639  12510.700  0.500  3.154156  53.7724  92.8016  3.960255
  12516.658  12516.700  0.500  3.156200  53.6955  92.6812  3.947041
  12517.539  12517.600  0.500  3.156745  53.6805  92.6521  3.943648
  12518.440  12518.500  0.500  3.157579  53.6649  92.6349  3.939632
  12519.348  12519.400  0.500  3.158446  53.6523  92.6137  3.935316
  12520.250  12520.300  0.500  3.159607  53.6409  92.593  3.929871
  12521.166  12521.200  0.500  3.161005  53.6223  92.5759  3.923658
  12522.061  12522.100  0.500  3.162407  53.6075  92.5499  3.917058
  12522.956  12523.000  0.500  3.164197  53.5929  92.5266  3.909068
  12523.872  12523.900  0.500  3.166581  53.5796  92.5047  3.898838
  12524.774  12524.800  0.500  3.169547  53.5627  92.4847  3.886450
  12525.683  12525.700  0.500  3.172930  53.5501  92.4493  3.871842
  12526.593  12526.600  0.500  3.177672  53.5327  92.4296  3.852702
  12527.489  12527.500  0.500  3.183557  53.513  92.4089  3.829241
  12528.385  12528.400  0.500  3.190987  53.5035  92.3879  3.800031
  12529.302  12529.300  0.500  3.199911  53.4845  92.3574  3.765025
  12530.184  12530.200  0.500  3.210670  53.4734  92.3326  3.723737
  12531.087  12531.100  0.500  3.222174  53.4585  92.3085  3.680180
  12531.977  12532.000  0.500  3.234607  53.4437  92.2828  3.633699
  12532.888  12532.900  0.500  3.247458  53.4259  92.2592  3.586381
  12533.798  12533.800  0.500  3.259758  53.4126  92.2383  3.541737
  12534.716  12534.700  0.500  3.271450  53.3926  92.2179  3.499792
  12535.613  12535.600  0.500  3.280874  53.3766  92.1828  3.465646
  12536.503  12536.500  0.500  3.290040  53.3616  92.1589  3.433134
  12537.400  12537.400  0.500  3.299893  53.3355  92.1198  3.398034
  12538.318  12538.300  0.500  3.313043  53.2951  92.0487  3.351053
  12539.202  12539.200  0.500  3.328844  53.1238  91.7572  3.288074
  12540.100  12540.100  0.500  3.346838  52.8561  91.3066  3.213579
  12540.998  12541.000  0.500  3.367291  52.985  91.5316  3.156279
  12541.882  12541.900  0.500  3.389217  53.2149  91.9099  3.100588
  12542.794  12542.800  0.500  3.411218  53.2779  92.0389  3.037374
  12543.679  12543.700  0.500  3.433249  53.2716  92.035  2.971065
  12544.598  12544.600  0.500  3.454323  53.2585  91.9964  2.907888
  12545.496  12545.500  0.500  3.474288  53.2383  91.9748  2.849737
  12546.395  12546.400  0.500  3.492265  53.2251  91.9546  2.798352
  12547.300  12547.300  0.500  3.507550  53.3969  92.2578  2.764990
  12548.199  12548.200  0.500  3.521189  53.3902  92.2429  2.727093
  12549.085  12549.100  0.500  3.533680  53.3753  92.2246  2.692708
  12550.004  12550.000  0.500  3.544421  53.358  92.1909  2.662963
  12550.890  12550.900  0.500  3.553244  53.3467  92.1766  2.639165
  12551.707  12551.700  0.500  3.559418  53.3339  92.1526  2.622239
  12554.722  12554.710  0.500  3.563157  53.2866  92.0826  2.610469
  12557.938  12557.900  0.500  3.550240  53.2414  92.0168  2.642514
  12561.265  12561.260  0.500  3.546164  53.1976  91.9384  2.651046
  12564.801  12564.780  0.500  3.539702  53.1489  91.8709  2.666274
  12568.497  12568.480  0.500  3.514148  53.0986  91.7921  2.732942
  12572.340  12572.350  0.500  3.484888  53.0415  91.7169  2.811780
  12576.427  12576.400  0.500  3.465732  52.9639  91.5788  2.861847
  12580.606  12580.610  0.500  3.456484  52.9272  91.5356  2.887075
  12585.008  12584.990  0.500  3.451185  52.8728  91.4466  2.899592
  12589.559  12589.550  0.500  3.446973  52.806  91.3436  2.908552
  12594.286  12594.280  0.500  3.444544  52.7434  91.2494  2.912618
  12599.197  12599.180  0.500  3.443875  52.6761  91.1428  2.911163
  12604.243  12604.250  0.500  3.448086  52.6126  91.0359  2.895530
  12609.487  12609.490  0.500  3.455417  52.5396  90.9317  2.871091
  12614.909  12614.910  0.500  3.463347  52.4671  90.8269  2.845129
  12620.523  12620.490  0.500  3.464596  52.3408  90.6214  2.835148
  12626.247  12626.250  0.500  3.458970  52.313  90.5762  2.849721
  12632.198  12632.180  0.500  3.451216  52.2375  90.4685  2.868490
  12638.308  12638.280  0.500  3.446217  52.1648  90.3487  2.879047
  12644.557  12644.550  0.500  3.441600  52.0834  90.2209  2.888279
  12651.007  12650.990  0.500  3.433157  51.9971  90.0907  2.908566
  12657.604  12657.600  0.500  3.424375  51.9103  89.9632  2.930068
  12664.417  12664.390  0.500  3.416565  51.8182  89.8123  2.948089
  12671.377  12671.350  0.500  3.409674  51.7278  89.6846  2.964253
  12678.479  12678.470  0.500  3.405646  51.6256  89.5282  2.971027
  12685.771  12685.770  0.500  3.403923  51.5422  89.3986  2.971842
  12693.261  12693.250  0.500  3.403086  51.4471  89.2551  2.969556
  12700.908  12700.890  0.500  3.403341  51.3461  89.1  2.963642
  12708.705  12708.700  0.500  3.400997  51.2416  88.9453  2.965436
  12716.688  12716.690  0.500  3.394590  51.142  88.7876  2.979208
  12724.864  12724.850  0.500  3.388018  51.034  88.609  2.992818
  12733.193  12733.170  0.500  3.383011  50.9054  88.4135  3.001204
  12741.667  12741.670  0.500  3.376667  50.8275  88.294  3.016222
  12750.351  12750.350  0.500  3.368237  50.7236  88.137  3.036348
  12759.211  12759.190  0.500  3.360448  50.6127  87.9626  3.054035
  12768.189  12768.200  0.500  3.353084  50.4984  87.7866  3.070452
  12777.408  12777.390  0.500  3.347247  50.3842  87.6078  3.082136
  12786.769  12786.750  0.500  3.342520  50.2595  87.4091  3.089717
  12796.315  12796.270  0.500  3.338206  50.1422  87.2271  3.096615
  12805.990  12805.970  0.500  3.333825  50.0162  87.0359  3.103394
  12815.880  12815.850  0.500  3.328188  49.896  86.8437  3.114046
  12825.922  12825.890  0.500  3.321463  49.7327  86.5854  3.125731
  12836.124  12836.100  0.500  3.314234  49.6358  86.445  3.143305
  12846.508  12846.490  0.500  3.309485  49.4925  86.2198  3.150039
  12857.052  12857.050  0.500  3.303094  49.3828  86.0512  3.164038
  12867.802  12867.780  0.500  3.295891  49.2409  85.83  3.178715
  12878.694  12878.680  0.500  3.288740  49.0746  85.5608  3.191490
  12889.756  12889.750  0.500  3.281915  48.9653  85.4024  3.207395
  12901.004  12900.990  0.500  3.274238  48.8009  85.1291  3.221770
  12912.411  12912.410  0.500  3.267173  48.8403  85.2205  3.248097
  12924.027  12923.990  0.500  3.260071  48.7278  85.0548  3.264884
  12935.774  12935.750  0.500  3.253365  48.5799  84.8217  3.277845
  12947.703  12947.680  0.500  3.245318  48.4247  84.5709  3.294561
  12959.808  12959.780  0.500  3.237711  48.274  84.3366  3.310516
  12972.084  12972.050  0.500  3.230558  48.1458  84.1452  3.326717
  12984.529  12984.490  0.500  3.224715  47.992  83.8989  3.336417
  12997.169  12997.110  0.500  3.218358  47.8396  83.6631  3.348258
  13009.937  13009.890  0.500  3.210740  47.6806  83.4101  3.363661
  13022.885  13022.850  0.500  3.203066  47.5206  83.1502  3.379012
  13036.038  13035.980  0.500  3.194210  47.3595  82.9072  3.399105
  13049.336  13049.280  0.500  3.185350  47.1113  82.4924  3.412193
  13062.789  13062.750  0.500  3.176490  47.0282  82.3792  3.437836
  13076.433  13076.400  0.500  3.169261  46.8372  82.075  3.449994
  13090.256  13090.210  0.500  3.161840  46.6815  81.8212  3.464942
  13104.221  13104.200  0.500  3.153884  46.4964  81.5257  3.480007
  13118.404  13118.360  0.500  3.145213  46.2825  81.1757  3.495245
  13132.746  13132.690  0.500  3.137547  46.1539  80.9738  3.513382
  13147.232  13147.190  0.500  3.129359  45.9939  80.7276  3.531496
  13161.895  13161.860  0.500  3.121027  45.8059  80.4233  3.547623
  13176.765  13176.700  0.500  3.112536  45.6112  80.1117  3.564008
  13191.768  13191.720  0.500  3.103753  45.4399  79.8302  3.582817
  13206.942  13206.900  0.500  3.095104  45.2457  79.5293  3.600315
  13222.312  13222.260  0.500  3.086162  45.039  79.1879  3.617060
  13237.833  13237.790  0.500  3.078057  44.8524  78.89  3.632778
  13253.529  13253.490  0.500  3.069431  44.6215  78.5138  3.646774
  13269.393  13269.360  0.500  3.060418  44.2576  77.8987  3.650966
  13285.457  13285.410  0.500  3.051101  43.6161  76.8074  3.633513
  13301.661  13301.620  0.500  3.041595  43.3872  76.4279  3.650096
  13318.045  13318.010  0.500  3.033064  43.2669  76.2478  3.672692
  13334.624  13334.570  0.500  3.023753  43.0329  75.8688  3.688622
  13351.347  13351.300  0.500  3.015013  42.9113  75.6779  3.711639
  13368.244  13368.200  0.500  3.006025  42.702  75.3339  3.728122
  13379.604  13379.560  0.500  2.999715  42.5761  75.1345  3.741791

File: Re-L1-RheniumTrioxide.xdi
# XDI/1.0 BlueSky/1.10.0 BMM/2023-1.0-py310-tiled
# Beamline.name: BMM (06BM) -- Beamline for Materials Measurement (NIST)
# Beamline.xray_source: NSLS-II three-pole wiggler
# Beamline.collimation: paraboloid mirror, 5 nm Rh on 30 nm Pt
# Beamline.focusing: not in use
# Beamline.harmonic_rejection: flat mirror, Pt stripe, pitch = 7.0 mrad relative to beam
# Beamline.software: Bluesky 1.10.0, Ophyd 1.7.0, DataBroker 2.0.0b13, Python 3.10.8, 2023-1.0-py310-tiled
# Detector.I0: 10 cm N2
# Detector.I1: 25 cm N2
# Detector.I2: 25 cm N2
# Element.symbol: Re
# Element.edge: L1
# Element.reference: Re
# Element.reference_material: ReO2
# Facility.name: NSLS-II
# Facility.energy: 3.0
# Facility.current: 400.6
# Facility.mode: top-off
# Facility.GUP: 301027
# Facility.SAF: 310583
# Facility.cycle: 2023-2
# Mono.name: Si(111)
# Mono.d_spacing: 3.13519
# Mono.encoder_resolution: 0.0000050 deg/ct
# Mono.angle_offset: 16.0754 deg
# Mono.scan_mode: pseudo channel cut
# Mono.scan_type: step
# Mono.direction: forward in energy
# Sample.name: ReO3, Rhenium trioxide
# Sample.prep: powder on tape
# Sample.x: 145.711 mm
# Sample.y: 114.376 mm
# Sample.SDD_position: 205.000 mm
# Scan.experimenters: Bruce Ravel
# Scan.edge_energy: 12526.7
# Scan.start_time: 2023-06-27T19:00:02
# Scan.end_time: 2023-06-27T19:07:56
# Scan.transient_id: 85244
# Scan.uid: 5b1c23a2-73ca-4988-8661-fdb9ea4287b5
# Scan.plot_hint: ln(I0/It)  --  ln($5/$6)
# Column.1: energy eV
# Column.2: requested_energy eV
# Column.3: measurement_time seconds
# Column.4: xmu
# Column.5: I0 nA
# Column.6: It nA
# Column.7: Ir nA
# ///////////
# Welcome to BMM
# -----------
# energy  requested_energy  measurement_time  xmu  I0  It  Ir
  12326.738  12326.700  0.500  5.298304  56.0786  0.280397  0.009131
  12356.757  12356.700  0.500  5.278235  55.7272  0.284288  0.009528
  12386.785  12386.700  0.500  5.228418  55.4307  0.297219  0.010278
  12416.732  12416.700  0.500  5.218151  55.0338  0.298137  0.010438
  12446.725  12446.700  0.500  5.165032  54.7008  0.312499  0.010952
  12476.730  12476.700  0.500  5.151106  54.3349  0.314762  0.011343
  12498.673  12498.700  0.500  5.141931  54.0837  0.316194  0.011470
  12504.687  12504.700  0.500  5.133950  54.0017  0.318245  0.011602
  12510.680  12510.700  0.500  5.126584  53.9263  0.320150  0.011491
  12516.658  12516.700  0.500  5.123148  53.8488  0.320790  0.011715
  12517.539  12517.600  0.500  5.122773  53.8389  0.320852  0.011655
  12518.447  12518.500  0.500  5.123097  53.8185  0.320626  0.011606
  12519.362  12519.400  0.500  5.122363  53.8036  0.320773  0.011549
  12520.271  12520.300  0.500  5.123190  53.7949  0.320456  0.011589
  12521.179  12521.200  0.500  5.124115  53.7744  0.320038  0.011475
  12522.081  12522.100  0.500  5.125484  53.7701  0.319574  0.011476
  12522.983  12523.000  0.500  5.127342  53.7508  0.318866  0.011338
  12523.879  12523.900  0.500  5.128372  53.7384  0.318465  0.011473
  12524.781  12524.800  0.500  5.130651  53.724  0.317654  0.011471
  12525.670  12525.700  0.500  5.133994  53.7085  0.316503  0.011228
  12526.572  12526.600  0.500  5.137542  53.6989  0.315326  0.011235
  12527.496  12527.500  0.500  5.142262  53.6816  0.313740  0.011134
  12528.392  12528.400  0.500  5.149268  53.6654  0.311455  0.010922
  12529.302  12529.300  0.500  5.155671  53.6572  0.309420  0.010758
  12530.212  12530.200  0.500  5.164727  53.6375  0.306518  0.010571
  12531.087  12531.100  0.500  5.177495  53.6227  0.302546  0.010331
  12531.991  12532.000  0.500  5.191719  53.6081  0.298192  0.010075
  12532.888  12532.900  0.500  5.204922  53.5968  0.294219  0.009759
  12533.805  12533.800  0.500  5.220717  53.5718  0.289473  0.009446
  12534.688  12534.700  0.500  5.234651  53.5564  0.285385  0.009293
  12535.613  12535.600  0.500  5.247110  53.5433  0.281782  0.008919
  12536.496  12536.500  0.500  5.258530  53.532  0.278524  0.008925
  12537.414  12537.400  0.500  5.269874  53.5127  0.275283  0.008579
  12538.277  12538.300  0.500  5.279598  53.4922  0.272515  0.008358
  12539.182  12539.200  0.500  5.292326  53.4459  0.268835  0.008276
  12540.100  12540.100  0.500  5.306390  53.2681  0.264199  0.007756
  12541.012  12541.000  0.500  5.325254  53.0128  0.258019  0.007498
  12541.903  12541.900  0.500  5.347622  53.1627  0.253025  0.007118
  12542.815  12542.800  0.500  5.375408  53.3747  0.247073  0.006880
  12543.692  12543.700  0.500  5.410259  53.4421  0.238912  0.006591
  12544.598  12544.600  0.500  5.449751  53.4272  0.229597  0.006004
  12545.482  12545.500  0.500  5.496820  53.4101  0.218970  0.005509
  12546.402  12546.400  0.500  5.549213  53.3965  0.207740  0.005464
  12547.293  12547.300  0.500  5.602540  53.3838  0.196905  0.004969
  12548.199  12548.200  0.500  5.648849  53.3688  0.187942  0.004567
  12549.119  12549.100  0.500  5.682981  53.3593  0.181603  0.004459
  12549.997  12550.000  0.500  5.703735  53.3508  0.177845  0.004156
  12550.917  12550.900  0.500  5.713998  53.3218  0.175933  0.004123
  12551.693  12551.700  0.500  5.717263  53.3164  0.175342  0.004028
  12554.736  12554.710  0.500  5.736587  53.2788  0.171864  0.003996
  12557.910  12557.900  0.500  5.801414  53.2237  0.160910  0.003750
  12561.279  12561.260  0.500  5.827007  53.1817  0.156720  0.003695
  12564.808  12564.780  0.500  5.826725  53.3166  0.157162  0.003661
  12568.476  12568.480  0.500  5.853501  53.2723  0.152883  0.003593
  12572.375  12572.350  0.500  5.839141  53.2185  0.154937  0.003941
  12576.406  12576.400  0.500  5.758583  53.1586  0.167746  0.004134
  12580.626  12580.610  0.500  5.692066  53.1116  0.179125  0.004659
  12584.995  12584.990  0.500  5.660071  53.0598  0.184769  0.004752
  12589.559  12589.550  0.500  5.629030  52.9967  0.190367  0.004983
  12594.273  12594.280  0.500  5.597864  52.9432  0.196195  0.005212
  12599.162  12599.180  0.500  5.571309  52.8745  0.201214  0.005313
  12604.215  12604.250  0.500  5.568924  52.8115  0.201454  0.005326
  12609.861  12609.490  0.500  5.581468  52.7435  0.198686  0.005155
  12615.041  12614.910  0.500  5.573804  52.6758  0.199958  0.005188
  12620.461  12620.490  0.500  5.571135  52.5814  0.200133  0.005341
  12626.233  12626.250  0.500  5.602077  52.5106  0.193774  0.004987
  12632.163  12632.180  0.500  5.654336  52.4442  0.183675  0.004908
  12638.273  12638.280  0.500  5.652643  52.3767  0.183750  0.004651
  12644.550  12644.550  0.500  5.624946  52.2941  0.188612  0.004991
  12650.979  12650.990  0.500  5.617666  52.2044  0.189664  0.005072
  12657.597  12657.600  0.500  5.609588  52.1398  0.190966  0.005020
  12664.375  12664.390  0.500  5.591878  52.0518  0.194050  0.005242
  12671.356  12671.350  0.500  5.572479  51.9641  0.197518  0.005323
  12678.458  12678.470  0.500  5.559496  51.8785  0.199769  0.005522
  12685.778  12685.770  0.500  5.547341  51.7836  0.201843  0.005588
  12693.240  12693.250  0.500  5.518776  51.6918  0.207323  0.005766
  12700.894  12700.890  0.500  5.491232  51.5939  0.212709  0.005771
  12708.712  12708.700  0.500  5.485791  51.5031  0.213494  0.005795
  12716.674  12716.690  0.500  5.505229  51.4047  0.208984  0.005675
  12724.857  12724.850  0.500  5.515074  51.301  0.206519  0.005800
  12733.165  12733.170  0.500  5.508336  51.1892  0.207462  0.005857
  12741.667  12741.670  0.500  5.501605  51.1009  0.208503  0.005769
  12750.337  12750.350  0.500  5.497431  51.0037  0.208977  0.005924
  12759.182  12759.190  0.500  5.486266  50.8995  0.210891  0.005981
  12768.210  12768.200  0.500  5.476262  50.7949  0.212574  0.006151
  12777.401  12777.390  0.500  5.460541  50.6859  0.215479  0.006217
  12786.783  12786.750  0.500  5.443821  50.5794  0.218652  0.006336
  12796.272  12796.270  0.500  5.421680  50.4838  0.223124  0.006642
  12805.976  12805.970  0.500  5.395830  50.3759  0.228478  0.006634
  12815.851  12815.850  0.500  5.379718  50.2696  0.231699  0.006859
  12825.915  12825.890  0.500  5.381283  50.1615  0.230839  0.007097
  12836.109  12836.100  0.500  5.388567  50.0458  0.228635  0.006902
  12846.508  12846.490  0.500  5.377960  49.9391  0.230580  0.006970
  12857.074  12857.050  0.500  5.364524  49.819  0.233138  0.007025
  12867.810  12867.780  0.500  5.348203  49.7036  0.236425  0.007336
  12878.708  12878.680  0.500  5.337040  49.4713  0.237961  0.007471
  12889.778  12889.750  0.500  5.328533  49.4663  0.239970  0.007460
  12900.997  12900.990  0.500  5.312253  49.2899  0.243039  0.007622
  12912.432  12912.410  0.500  5.301970  49.1986  0.245096  0.007764
  12924.027  12923.990  0.500  5.288625  49.0819  0.247800  0.007956
  12935.774  12935.750  0.500  5.273563  48.9581  0.250926  0.008012
  12947.725  12947.680  0.500  5.264631  48.7965  0.252342  0.008154
  12959.801  12959.780  0.500  5.261841  48.7008  0.252550  0.008368
  12972.069  12972.050  0.500  5.248068  48.5592  0.255308  0.008470
  12984.500  12984.490  0.500  5.225361  48.5781  0.261273  0.008721
  12997.125  12997.110  0.500  5.196626  48.4372  0.268110  0.008937
  13009.915  13009.890  0.500  5.186375  48.2876  0.270036  0.009156
  13022.878  13022.850  0.500  5.178884  48.1405  0.271237  0.009244
  13036.008  13035.980  0.500  5.168275  47.9927  0.273289  0.009392
  13049.329  13049.280  0.500  5.160799  47.7894  0.274173  0.009554
  13062.796  13062.750  0.500  5.153243  47.6807  0.275624  0.009629
  13076.433  13076.400  0.500  5.133381  47.5251  0.280236  0.009966
  13090.234  13090.210  0.500  5.114702  47.3673  0.284572  0.010158
  13104.213  13104.200  0.500  5.099511  47.1905  0.287849  0.010352
  13118.374  13118.360  0.500  5.086172  46.9832  0.290433  0.010522
  13132.731  13132.690  0.500  5.070421  46.8729  0.294352  0.010817
  13147.255  13147.190  0.500  5.051521  46.716  0.298963  0.011020
  13161.918  13161.860  0.500  5.031816  46.5457  0.303802  0.011247
  13176.727  13176.700  0.500  5.024425  46.3787  0.304957  0.011445
  13191.753  13191.720  0.500  5.016197  46.2027  0.306310  0.011607
  13206.935  13206.900  0.500  5.002794  46.0235  0.309239  0.011892
  13222.312  13222.260  0.500  4.985800  45.836  0.313257  0.012154
  13237.825  13237.790  0.500  4.963262  45.6494  0.319093  0.012517
  13253.537  13253.490  0.500  4.940430  45.435  0.324929  0.012762
  13269.408  13269.360  0.500  4.926991  45.1185  0.327032  0.013024
  13285.457  13285.410  0.500  4.918292  44.4798  0.325219  0.013138
  13301.661  13301.620  0.500  4.909973  44.2339  0.326123  0.013311
  13318.053  13318.010  0.500  4.895156  44.1013  0.329999  0.013505
  13334.632  13334.570  0.500  4.869459  43.8794  0.336885  0.013973
  13351.347  13351.300  0.500  4.844474  43.7559  0.344436  0.014345
  13368.244  13368.200  0.500  4.829090  43.5566  0.348183  0.014628
  13379.604  13379.560  0.500  4.820369  43.4279  0.350195  0.014959