Folder: webxdiviewer/xdidata/Re (part 5)

File: Re-L3-RheniumTrioxide.xdi
# XDI/1.0 BlueSky/1.10.0 BMM/2023-1.0-py310-tiled
# Beamline.name: BMM (06BM) -- Beamline for Materials Measurement (NIST)
# Beamline.xray_source: NSLS-II three-pole wiggler
# Beamline.collimation: paraboloid mirror, 5 nm Rh on 30 nm Pt
# Beamline.focusing: not in use
# Beamline.harmonic_rejection: flat mirror, Pt stripe, pitch = 7.0 mrad relative to beam
# Beamline.software: Bluesky 1.10.0, Ophyd 1.7.0, DataBroker 2.0.0b13, Python 3.10.8, 2023-1.0-py310-tiled
# Detector.I0: 10 cm N2
# Detector.I1: 25 cm N2
# Detector.I2: 25 cm N2
# Element.symbol: Re
# Element.edge: L3
# Element.reference: Re
# Element.reference_material: ReO2
# Facility.name: NSLS-II
# Facility.energy: 3.0
# Facility.current: 399.5
# Facility.mode: top-off
# Facility.GUP: 301027
# Facility.SAF: 310583
# Facility.cycle: 2023-2
# Mono.name: Si(111)
# Mono.d_spacing: 3.13519
# Mono.encoder_resolution: 0.0000050 deg/ct
# Mono.angle_offset: 16.0754 deg
# Mono.scan_mode: pseudo channel cut
# Mono.scan_type: step
# Mono.direction: forward in energy
# Sample.name: ReO3, Rhenium trioxide
# Sample.prep: powder on tape
# Sample.x: 145.711 mm
# Sample.y: 114.376 mm
# Sample.SDD_position: 205.000 mm
# Scan.experimenters: Bruce Ravel
# Scan.edge_energy: 10535.3
# Scan.start_time: 2023-06-27T16:46:28
# Scan.end_time: 2023-06-27T16:54:12
# Scan.transient_id: 85163
# Scan.uid: 5704acc5-8d99-4cff-a870-016465c275ec
# Scan.plot_hint: ln(I0/It)  --  ln($5/$6)
# Column.1: energy eV
# Column.2: requested_energy eV
# Column.3: measurement_time seconds
# Column.4: xmu
# Column.5: I0 nA
# Column.6: It nA
# Column.7: Ir nA
# ///////////
# Welcome to BMM
# -----------
# energy  requested_energy  measurement_time  xmu  I0  It  Ir
  10335.269  10335.300  0.500  3.251718  90.2477  3.493279  0.461164
  10365.342  10365.300  0.500  3.219818  89.9939  3.596368  0.482532
  10395.365  10395.300  0.500  3.188847  89.4058  3.685248  0.502971
  10425.311  10425.300  0.500  3.158939  88.8551  3.773744  0.522817
  10455.381  10455.300  0.500  3.132652  88.3113  3.850548  0.540636
  10485.371  10485.300  0.500  3.118180  87.7532  3.881992  0.548545
  10507.276  10507.300  0.500  3.143600  87.3447  3.766941  0.523285
  10513.295  10513.300  0.500  3.171996  87.1717  3.654224  0.497997
  10519.282  10519.300  0.500  3.228200  87.1115  3.452119  0.453170
  10525.281  10525.300  0.500  3.355008  86.9138  3.034080  0.365541
  10526.165  10526.200  0.500  3.386658  86.7404  2.933690  0.345871
  10527.073  10527.100  0.500  3.425347  86.8027  2.824385  0.323609
  10527.976  10528.000  0.500  3.470078  86.864  2.702738  0.300535
  10528.865  10528.900  0.500  3.520612  86.9106  2.570931  0.275556
  10529.769  10529.800  0.500  3.583346  86.9017  2.414352  0.246951
  10530.663  10530.700  0.500  3.662236  86.888  2.230853  0.215480
  10531.581  10531.600  0.500  3.761498  86.8646  2.019507  0.180994
  10532.490  10532.500  0.500  3.885528  86.8464  1.783563  0.145279
  10533.384  10533.400  0.500  4.039713  86.822  1.528286  0.110565
  10534.284  10534.300  0.500  4.239372  86.8053  1.251442  0.076934
  10535.183  10535.200  0.500  4.509922  86.7847  0.954573  0.047364
  10536.093  10536.100  0.500  4.889447  86.7613  0.652929  0.023919
  10537.002  10537.000  0.500  5.396906  86.7453  0.393006  0.009646
  10537.893  10537.900  0.500  6.083000  86.7211  0.197839  0.002944
  10538.788  10538.800  0.500  6.975434  86.703  0.081029  0.000747
  10539.699  10539.700  0.500  8.118008  86.6357  0.025828  0.000125
  10540.604  10540.600  0.500  9.299406  86.5639  0.007919  0.000161
  10541.490  10541.500  0.500  10.0248  86.6044  0.003836  0.000094
  10542.391  10542.400  0.500  10.3309  86.6226  0.002825  0.000029
  10543.302  10543.300  0.500  10.3749  86.6103  0.002703  0.000045
  10544.198  10544.200  0.500  10.4113  86.5907  0.002606  0.000048
  10545.085  10545.100  0.500  10.2846  86.5663  0.002957  0.000073
  10546.001  10546.000  0.500  10.033  86.5522  0.003802  0.000078
  10546.903  10546.900  0.500  9.593564  86.5289  0.005898  0.000144
  10547.810  10547.800  0.500  8.998229  86.5078  0.010695  0.000216
  10548.702  10548.700  0.500  8.358086  86.4824  0.020280  0.000246
  10549.594  10549.600  0.500  7.720344  86.4608  0.038363  0.000610
  10550.506  10550.500  0.500  7.148461  86.4379  0.067946  0.001294
  10551.404  10551.400  0.500  6.683476  86.4205  0.108148  0.002248
  10552.297  10552.300  0.500  6.342378  86.4047  0.152082  0.003182
  10553.195  10553.200  0.500  6.099903  86.3814  0.193761  0.004228
  10554.108  10554.100  0.500  5.941968  86.3582  0.226850  0.005077
  10555.006  10555.000  0.500  5.853717  86.3227  0.247678  0.005548
  10555.899  10555.900  0.500  5.802288  86.2261  0.260458  0.006149
  10556.798  10556.800  0.500  5.771237  86.1914  0.268564  0.006363
  10557.721  10557.700  0.500  5.752186  86.1979  0.273750  0.006922
  10558.605  10558.600  0.500  5.746364  86.0413  0.274848  0.006996
  10559.504  10559.500  0.500  5.755263  86.1093  0.272628  0.007096
  10560.288  10560.300  0.500  5.772848  86.2079  0.268183  0.007096
  10563.325  10563.310  0.500  5.794462  86.1569  0.262293  0.007176
  10566.504  10566.500  0.500  5.642459  86.0895  0.305113  0.008091
  10569.874  10569.860  0.500  5.489817  86.0267  0.355170  0.009509
  10573.382  10573.380  0.500  5.514885  85.9539  0.346084  0.009079
  10577.096  10577.080  0.500  5.745630  85.8831  0.274544  0.007031
  10580.959  10580.950  0.500  5.706915  85.802  0.285112  0.007013
  10585.013  10585.000  0.500  5.698177  85.7062  0.287293  0.006390
  10589.222  10589.210  0.500  5.843445  85.6511  0.248289  0.004971
  10593.609  10593.590  0.500  6.017273  85.5733  0.208483  0.004105
  10598.166  10598.150  0.500  6.217124  85.729  0.171027  0.003671
  10602.892  10602.880  0.500  6.410091  85.6733  0.140922  0.003310
  10607.783  10607.780  0.500  6.252622  85.5624  0.164742  0.003984
  10612.855  10612.850  0.500  5.973934  85.4161  0.217317  0.005600
  10618.093  10618.090  0.500  5.828045  85.3338  0.251208  0.006337
  10623.513  10623.510  0.500  5.853311  85.2618  0.244734  0.006196
  10629.100  10629.090  0.500  5.836310  85.1473  0.248596  0.006298
  10634.864  10634.850  0.500  5.748507  85.0326  0.271045  0.006671
  10640.797  10640.780  0.500  5.720658  84.9008  0.278267  0.006876
  10646.894  10646.880  0.500  5.780756  84.8175  0.261779  0.006545
  10653.176  10653.150  0.500  5.816969  84.6828  0.252068  0.006074
  10659.608  10659.590  0.500  5.807039  84.532  0.254130  0.005870
  10666.205  10666.200  0.500  5.825318  84.4365  0.249245  0.005649
  10673.004  10672.990  0.500  5.902837  84.285  0.230240  0.005489
  10679.964  10679.950  0.500  5.949939  83.7997  0.218382  0.005246
  10687.088  10687.070  0.500  5.943757  84.0138  0.220297  0.005266
  10694.385  10694.370  0.500  5.938263  83.8638  0.221116  0.005629
  10701.866  10701.850  0.500  5.958454  83.7425  0.216382  0.005482
  10709.502  10709.490  0.500  5.889284  83.5866  0.231448  0.005966
  10717.308  10717.300  0.500  5.789948  83.4407  0.255173  0.006491
  10725.306  10725.290  0.500  5.719659  83.2764  0.273216  0.007021
  10733.465  10733.450  0.500  5.740902  83.1155  0.266956  0.006850
  10741.798  10741.770  0.500  5.774456  82.8172  0.257221  0.006522
  10750.284  10750.270  0.500  5.762898  82.7813  0.260098  0.006615
  10758.969  10758.950  0.500  5.744607  82.609  0.264348  0.006816
  10767.795  10767.790  0.500  5.738852  82.4358  0.265316  0.006789
  10776.816  10776.800  0.500  5.738810  82.2629  0.264771  0.006787
  10786.000  10785.990  0.500  5.737971  81.786  0.263457  0.006833
  10795.366  10795.350  0.500  5.756442  81.8954  0.258981  0.006799
  10804.881  10804.870  0.500  5.787903  81.6947  0.250346  0.006603
  10814.575  10814.570  0.500  5.771280  81.3321  0.253412  0.006871
  10824.474  10824.450  0.500  5.705212  81.3243  0.270694  0.007432
  10834.474  10834.490  0.500  5.660744  81.1317  0.282332  0.007625
  10844.687  10844.700  0.500  5.666437  80.9172  0.279987  0.007635
  10855.087  10855.090  0.500  5.673041  80.455  0.276556  0.007541
  10865.662  10865.650  0.500  5.641988  80.5133  0.285485  0.007881
  10876.386  10876.380  0.500  5.613299  80.2267  0.292748  0.008083
  10887.281  10887.280  0.500  5.587693  80.0943  0.299845  0.008465
  10898.338  10898.350  0.500  5.589334  79.896  0.298613  0.008330
  10909.598  10909.590  0.500  5.599295  79.6829  0.294865  0.008202
  10920.995  10921.010  0.500  5.594582  79.4605  0.295430  0.008517
  10932.588  10932.590  0.500  5.593996  79.2474  0.294811  0.008603
  10944.347  10944.350  0.500  5.563896  79.0276  0.302977  0.008863
  10956.277  10956.280  0.500  5.525103  78.7919  0.314022  0.009122
  10968.385  10968.380  0.500  5.514503  78.5629  0.316446  0.009349
  10980.656  10980.650  0.500  5.522369  78.2669  0.312783  0.009438
  10993.092  10993.090  0.500  5.509157  78.1053  0.316289  0.009588
  11005.709  11005.710  0.500  5.469328  77.8622  0.328116  0.010042
  11018.508  11018.490  0.500  5.425488  77.6146  0.341730  0.010444
  11031.464  11031.450  0.500  5.415723  77.3769  0.344027  0.010723
  11044.600  11044.580  0.500  5.407020  77.1386  0.345966  0.010843
  11057.905  11057.880  0.500  5.405004  76.8829  0.345515  0.010834
  11071.377  11071.350  0.500  5.407940  76.6393  0.343410  0.011012
  11085.031  11085.000  0.500  5.374190  76.3858  0.354023  0.011570
  11098.842  11098.810  0.500  5.342127  76.0435  0.363920  0.011846
  11112.844  11112.800  0.500  5.315512  75.7957  0.372518  0.012348
  11126.979  11126.960  0.500  5.315052  75.5806  0.371631  0.012445
  11141.333  11141.290  0.500  5.315547  75.5599  0.371346  0.012580
  11155.817  11155.790  0.500  5.303859  75.3059  0.374449  0.012774
  11170.502  11170.460  0.500  5.263242  75.0027  0.388401  0.013372
  11185.325  11185.300  0.500  5.208396  74.7471  0.408900  0.014312
  11200.361  11200.320  0.500  5.196141  74.4634  0.412370  0.014483
  11215.532  11215.500  0.500  5.198678  74.1722  0.409717  0.014576
  11230.898  11230.860  0.500  5.192778  73.8477  0.410338  0.014882
  11246.422  11246.390  0.500  5.178532  73.7  0.415394  0.015276
  11262.111  11262.090  0.500  5.138077  73.3354  0.430403  0.015843
  11277.994  11277.960  0.500  5.105616  73.0103  0.442633  0.016453
  11294.028  11294.010  0.500  5.087894  72.6575  0.448370  0.016893
  11310.258  11310.220  0.500  5.077123  72.3874  0.451541  0.017423
  11326.636  11326.610  0.500  5.081511  72.1036  0.447801  0.017334
  11343.185  11343.170  0.500  5.058516  71.6774  0.455509  0.017780
  11359.929  11359.900  0.500  5.019410  63.5035  0.419658  0.016654
  11376.836  11376.800  0.500  4.976602  69.7394  0.481024  0.019244
  11388.189  11388.160  0.500  4.961331  70.8204  0.495998  0.020028