Folder: webxdiviewer/xdidata/Re (part 3)

File: Re-L3-AmmoniumPerrhenate.xdi
# XDI/1.0 BlueSky/1.10.0 BMM/2023-1.0-py310-tiled
# Beamline.name: BMM (06BM) -- Beamline for Materials Measurement (NIST)
# Beamline.xray_source: NSLS-II three-pole wiggler
# Beamline.collimation: paraboloid mirror, 5 nm Rh on 30 nm Pt
# Beamline.focusing: not in use
# Beamline.harmonic_rejection: flat mirror, Pt stripe, pitch = 7.0 mrad relative to beam
# Beamline.software: Bluesky 1.10.0, Ophyd 1.7.0, DataBroker 2.0.0b13, Python 3.10.8, 2023-1.0-py310-tiled
# Detector.I0: 10 cm N2
# Detector.I1: 25 cm N2
# Detector.I2: 25 cm N2
# Element.symbol: Re
# Element.edge: L3
# Element.reference: Re
# Element.reference_material: ReO2
# Facility.name: NSLS-II
# Facility.energy: 3.0
# Facility.current: 400.9
# Facility.mode: top-off
# Facility.GUP: 301027
# Facility.SAF: 310583
# Facility.cycle: 2023-2
# Mono.name: Si(111)
# Mono.d_spacing: 3.13519
# Mono.encoder_resolution: 0.0000050 deg/ct
# Mono.angle_offset: 16.0754 deg
# Mono.scan_mode: pseudo channel cut
# Mono.scan_type: step
# Mono.direction: forward in energy
# Sample.name: NH4ReO4, Ammonium perrhenate
# Sample.prep: powder on tape
# Sample.x: 145.711 mm
# Sample.y: 114.376 mm
# Sample.SDD_position: 205.000 mm
# Scan.experimenters: Bruce Ravel
# Scan.edge_energy: 10535.3
# Scan.start_time: 2023-06-27T16:30:02
# Scan.end_time: 2023-06-27T16:37:40
# Scan.transient_id: 85153
# Scan.uid: 27e023b9-72bc-4680-93cf-c74abc5f67f9
# Scan.plot_hint: ln(I0/It)  --  ln($5/$6)
# Column.1: energy eV
# Column.2: requested_energy eV
# Column.3: measurement_time seconds
# Column.4: xmu
# Column.5: I0 nA
# Column.6: It nA
# Column.7: Ir nA
# ///////////
# Welcome to BMM
# -----------
# energy  requested_energy  measurement_time  xmu  I0  It  Ir
  10335.310  10335.300  0.500  1.659925  90.3575  17.1818  2.280185
  10365.342  10365.300  0.500  1.641376  89.8336  17.4019  2.347723
  10395.360  10395.300  0.500  1.624013  89.2699  17.5956  2.412466
  10425.311  10425.300  0.500  1.606722  88.7459  17.7974  2.476527
  10455.287  10455.300  0.500  1.591432  88.1786  17.9561  2.533332
  10485.376  10485.300  0.500  1.583863  87.6497  17.984  2.552713
  10507.309  10507.300  0.500  1.601452  87.2591  17.5918  2.452317
  10513.290  10513.300  0.500  1.619688  87.0825  17.2389  2.360178
  10519.297  10519.300  0.500  1.654864  87.0342  16.6338  2.194159
  10525.286  10525.300  0.500  1.733162  86.8251  15.3441  1.856923
  10526.170  10526.200  0.500  1.752259  86.6503  15.0236  1.778962
  10527.063  10527.100  0.500  1.775053  86.7164  14.6962  1.693908
  10527.962  10528.000  0.500  1.801436  86.7805  14.3241  1.600329
  10528.880  10528.900  0.500  1.832268  86.8221  13.8959  1.495214
  10529.773  10529.800  0.500  1.869117  86.81  13.3913  1.376392
  10530.687  10530.700  0.500  1.915543  86.795  12.7816  1.238149
  10531.591  10531.600  0.500  1.972682  86.7798  12.0696  1.084257
  10532.480  10532.500  0.500  2.041947  86.7541  11.2586  0.920206
  10533.384  10533.400  0.500  2.128681  86.7269  10.32  0.745294
  10534.284  10534.300  0.500  2.239123  86.7166  9.239817  0.566994
  10535.183  10535.200  0.500  2.386786  86.693  7.969226  0.388576
  10536.088  10536.100  0.500  2.586020  86.6765  6.528412  0.231397
  10536.998  10537.000  0.500  2.860105  86.6506  4.961854  0.112861
  10537.903  10537.900  0.500  3.228827  86.6286  3.430831  0.044296
  10538.798  10538.800  0.500  3.725619  86.6085  2.087109  0.013857
  10539.689  10539.700  0.500  4.415971  86.5436  1.045691  0.003439
  10540.589  10540.600  0.500  5.327538  86.4714  0.419906  0.000881
  10541.485  10541.500  0.500  6.347537  86.509  0.151482  0.000295
  10542.396  10542.400  0.500  7.242293  86.5297  0.061927  0.000161
  10543.302  10543.300  0.500  7.790854  86.5092  0.035772  0.000210
  10544.203  10544.200  0.500  7.719618  86.4816  0.038400  0.000121
  10545.100  10545.100  0.500  6.945732  86.4695  0.083247  0.000499
  10545.992  10546.000  0.500  5.962318  86.4448  0.222504  0.001299
  10546.888  10546.900  0.500  5.144234  86.4243  0.504108  0.003962
  10547.805  10547.800  0.500  4.568891  86.4065  0.895988  0.010032
  10548.707  10548.700  0.500  4.205231  86.3799  1.288559  0.018474
  10549.599  10549.600  0.500  4.008911  86.3534  1.567587  0.026978
  10550.497  10550.500  0.500  3.937689  86.3385  1.683015  0.032608
  10551.385  10551.400  0.500  3.945898  86.3196  1.668889  0.034734
  10552.292  10552.300  0.500  3.994896  86.2932  1.588602  0.034613
  10553.200  10553.200  0.500  4.059698  86.2753  1.488613  0.033106
  10554.098  10554.100  0.500  4.115548  86.2516  1.407367  0.031833
  10555.001  10555.000  0.500  4.130489  86.209  1.385810  0.032049
  10555.890  10555.900  0.500  4.087549  86.1211  1.445139  0.034323
  10556.788  10556.800  0.500  4.004350  86.0839  1.569839  0.038273
  10557.697  10557.700  0.500  3.906025  86.0953  1.732264  0.043704
  10558.600  10558.600  0.500  3.808384  85.9387  1.906465  0.049397
  10559.500  10559.500  0.500  3.722393  86.0142  2.079483  0.055472
  10560.302  10560.300  0.500  3.657611  86.1034  2.220957  0.060284
  10563.334  10563.310  0.500  3.500232  86.0551  2.598036  0.072269
  10566.509  10566.500  0.500  3.424269  85.9997  2.801276  0.076037
  10569.879  10569.860  0.500  3.400170  85.9297  2.867270  0.076671
  10573.387  10573.380  0.500  3.357382  85.8592  2.990159  0.079525
  10577.087  10577.080  0.500  3.288682  85.7852  3.200045  0.083158
  10580.968  10580.950  0.500  3.252119  85.7092  3.316272  0.081884
  10585.018  10585.000  0.500  3.284589  85.6099  3.206601  0.071966
  10589.212  10589.210  0.500  3.350892  85.5586  2.999090  0.061037
  10593.595  10593.590  0.500  3.413293  85.7384  2.823585  0.056034
  10598.175  10598.150  0.500  3.471089  85.6138  2.661147  0.056437
  10602.902  10602.880  0.500  3.529133  85.5515  2.509253  0.057932
  10607.813  10607.780  0.500  3.574017  85.456  2.396441  0.058673
  10612.875  10612.850  0.500  3.599347  85.309  2.332484  0.059698
  10618.093  10618.090  0.500  3.594087  85.2328  2.342689  0.060975
  10623.523  10623.510  0.500  3.572069  85.1676  2.393010  0.062037
  10629.100  10629.090  0.500  3.538920  85.0495  2.470236  0.062989
  10634.879  10634.850  0.500  3.506118  84.9342  2.549145  0.064333
  10640.802  10640.780  0.500  3.468765  84.8135  2.642405  0.066983
  10646.890  10646.880  0.500  3.431955  84.7261  2.738661  0.069415
  10653.176  10653.150  0.500  3.402632  84.598  2.815890  0.069474
  10659.608  10659.590  0.500  3.384354  84.449  2.862783  0.068055
  10666.215  10666.200  0.500  3.381191  84.3567  2.868712  0.066972
  10673.009  10672.990  0.500  3.387872  84.2163  2.844869  0.067109
  10679.964  10679.950  0.500  3.403452  83.7313  2.784758  0.067230
  10687.078  10687.070  0.500  3.423499  83.953  2.736716  0.067532
  10694.395  10694.370  0.500  3.445219  83.7979  2.672969  0.067918
  10701.856  10701.850  0.500  3.461678  83.6938  2.626067  0.067572
  10709.507  10709.490  0.500  3.468775  83.5358  2.602572  0.067379
  10717.313  10717.300  0.500  3.467474  83.3821  2.601165  0.067400
  10725.306  10725.290  0.500  3.459393  83.2341  2.617618  0.067483
  10733.470  10733.450  0.500  3.445747  83.076  2.648541  0.068708
  10741.778  10741.770  0.500  3.428658  82.7735  2.684382  0.069559
  10750.289  10750.270  0.500  3.409188  82.75  2.736381  0.070786
  10758.964  10758.950  0.500  3.388797  82.5756  2.786866  0.071480
  10767.805  10767.790  0.500  3.370852  82.4071  2.831539  0.073009
  10776.811  10776.800  0.500  3.356684  82.2274  2.865678  0.074660
  10786.005  10785.990  0.500  3.348099  81.7739  2.874445  0.075899
  10795.361  10795.350  0.500  3.344902  81.8703  2.887048  0.077650
  10804.901  10804.870  0.500  3.345354  81.6821  2.879110  0.078460
  10814.575  10814.570  0.500  3.347665  81.3259  2.859934  0.078283
  10824.474  10824.450  0.500  3.352906  81.3411  2.845520  0.077790
  10834.510  10834.490  0.500  3.353988  81.1479  2.835688  0.077734
  10844.712  10844.700  0.500  3.352496  80.9402  2.832655  0.078466
  10855.093  10855.090  0.500  3.345666  80.4651  2.835326  0.079091
  10865.642  10865.650  0.500  3.335960  80.5454  2.865841  0.080034
  10876.438  10876.380  0.500  3.324434  80.246  2.888284  0.080956
  10887.276  10887.280  0.500  3.311148  80.1255  2.922518  0.082629
  10898.348  10898.350  0.500  3.297224  79.9159  2.955748  0.084336
  10909.598  10909.590  0.500  3.283010  79.692  2.989661  0.086237
  10920.995  10921.010  0.500  3.269645  79.476  3.021671  0.088146
  10932.562  10932.590  0.500  3.257868  79.26  3.049158  0.089913
  10944.326  10944.350  0.500  3.248327  79.0415  3.069904  0.091115
  10956.277  10956.280  0.500  3.240513  78.8101  3.084928  0.092323
  10968.385  10968.380  0.500  3.234191  78.5912  3.095867  0.093653
  10980.651  10980.650  0.500  3.228476  78.287  3.101562  0.095005
  10993.076  10993.090  0.500  3.222621  78.123  3.113239  0.096218
  11005.714  11005.710  0.500  3.215905  77.9042  3.125438  0.097349
  11018.508  11018.490  0.500  3.207412  77.6592  3.142184  0.098057
  11031.454  11031.450  0.500  3.197586  77.4161  3.163277  0.099424
  11044.589  11044.580  0.500  3.186390  77.1764  3.188986  0.101121
  11057.889  11057.880  0.500  3.173811  76.9283  3.218974  0.103639
  11071.366  11071.350  0.500  3.160070  76.6814  3.253037  0.106366
  11085.031  11085.000  0.500  3.146456  76.4348  3.287021  0.108859
  11098.821  11098.810  0.500  3.133242  76.3594  3.327461  0.110995
  11112.844  11112.800  0.500  3.121109  76.1165  3.357363  0.112989
  11126.973  11126.960  0.500  3.109065  75.9123  3.388926  0.115369
  11141.328  11141.290  0.500  3.098412  75.665  3.414066  0.117506
  11155.817  11155.790  0.500  3.088435  75.4029  3.436351  0.119228
  11170.492  11170.460  0.500  3.078595  75.128  3.457678  0.121122
  11185.319  11185.300  0.500  3.068740  74.8518  3.479088  0.123169
  11200.356  11200.320  0.500  3.058609  74.5842  3.501947  0.125325
  11215.537  11215.500  0.500  3.048112  74.3  3.525416  0.128006
  11230.892  11230.860  0.500  3.036134  73.9861  3.552828  0.130360
  11246.422  11246.390  0.500  3.023277  73.8294  3.591175  0.133143
  11262.111  11262.090  0.500  3.009847  73.4657  3.621803  0.136114
  11277.983  11277.960  0.500  2.996291  73.1483  3.655371  0.138765
  11294.044  11294.010  0.500  2.982194  72.8033  3.689780  0.141459
  11310.247  11310.220  0.500  2.968332  72.5501  3.728275  0.144769
  11326.641  11326.610  0.500  2.954548  72.2624  3.765027  0.148280
  11343.202  11343.170  0.500  2.941557  71.8595  3.792994  0.151397
  11359.912  11359.900  0.500  2.933139  64.7521  3.446732  0.138957
  11376.831  11376.800  0.500  2.916647  69.8966  3.782445  0.154330
  11388.183  11388.160  0.500  2.908148  70.9591  3.872716  0.159265

File: Re-L3-Rhenium_metal.xdi
# XDI/1.0 BlueSky/1.10.0 BMM/2023-1.0-py310-tiled
# Beamline.name: BMM (06BM) -- Beamline for Materials Measurement (NIST)
# Beamline.xray_source: NSLS-II three-pole wiggler
# Beamline.collimation: paraboloid mirror, 5 nm Rh on 30 nm Pt
# Beamline.focusing: not in use
# Beamline.harmonic_rejection: flat mirror, Pt stripe, pitch = 7.0 mrad relative to beam
# Beamline.software: Bluesky 1.10.0, Ophyd 1.7.0, DataBroker 2.0.0b13, Python 3.10.8, 2023-1.0-py310-tiled
# Detector.I0: 10 cm N2
# Detector.I1: 25 cm N2
# Detector.I2: 25 cm N2
# Element.symbol: Re
# Element.edge: L3
# Element.reference: Re
# Element.reference_material: ReO2
# Facility.name: NSLS-II
# Facility.energy: 3.0
# Facility.current: 400.2
# Facility.mode: top-off
# Facility.GUP: 301027
# Facility.SAF: 310583
# Facility.cycle: 2023-2
# Mono.name: Si(111)
# Mono.d_spacing: 3.13519
# Mono.encoder_resolution: 0.0000050 deg/ct
# Mono.angle_offset: 16.0754 deg
# Mono.scan_mode: pseudo channel cut
# Mono.scan_type: step
# Mono.direction: forward in energy
# Sample.name: Re metal powder
# Sample.prep: powder on tape
# Sample.x: 145.711 mm
# Sample.y: 114.376 mm
# Sample.SDD_position: 205.000 mm
# Scan.experimenters: Bruce Ravel
# Scan.edge_energy: 10535.3
# Scan.start_time: 2023-06-27T16:38:16
# Scan.end_time: 2023-06-27T16:45:56
# Scan.transient_id: 85158
# Scan.uid: 2201814a-d1c6-4d52-9a96-520896fe0036
# Scan.plot_hint: ln(I0/It)  --  ln($5/$6)
# Column.1: energy eV
# Column.2: requested_energy eV
# Column.3: measurement_time seconds
# Column.4: xmu
# Column.5: I0 nA
# Column.6: It nA
# Column.7: Ir nA
# ///////////
# Welcome to BMM
# -----------
# energy  requested_energy  measurement_time  xmu  I0  It  Ir
  10335.292  10335.300  0.500  3.226643  90.3908  3.587660  0.473128
  10365.342  10365.300  0.500  3.197726  89.8588  3.671181  0.492287
  10395.351  10395.300  0.500  3.170046  89.2802  3.749916  0.511164
  10425.349  10425.300  0.500  3.143300  88.7308  3.827865  0.529976
  10455.396  10455.300  0.500  3.120533  88.1785  3.891639  0.545919
  10485.357  10485.300  0.500  3.111693  87.6266  3.901621  0.550810
  10507.281  10507.300  0.500  3.149672  87.2305  3.739239  0.518893
  10513.280  10513.300  0.500  3.187286  87.0535  3.593897  0.489270
  10519.282  10519.300  0.500  3.264291  87.0022  3.325575  0.436475
  10525.291  10525.300  0.500  3.450268  86.7935  2.754575  0.331789
  10526.165  10526.200  0.500  3.499035  86.6148  2.618065  0.308248
  10527.068  10527.100  0.500  3.559765  86.6842  2.465776  0.282891
  10527.967  10528.000  0.500  3.631337  86.7423  2.297001  0.255049
  10528.865  10528.900  0.500  3.716498  86.787  2.110572  0.225909
  10529.773  10529.800  0.500  3.825428  86.7778  1.892547  0.193676
  10530.682  10530.700  0.500  3.969048  86.758  1.638981  0.158341
  10531.595  10531.600  0.500  4.155028  86.7379  1.360514  0.121796
  10532.485  10532.500  0.500  4.398114  86.718  1.066676  0.087169
  10533.384  10533.400  0.500  4.713837  86.6976  0.777703  0.056437
  10534.289  10534.300  0.500  5.140770  86.6791  0.507348  0.031625
  10535.188  10535.200  0.500  5.722571  86.6586  0.283485  0.014370
  10536.098  10536.100  0.500  6.473121  86.6384  0.133804  0.005138
  10536.993  10537.000  0.500  7.330925  86.623  0.056735  0.001302
  10537.903  10537.900  0.500  8.116054  86.5986  0.025867  0.000328
  10538.784  10538.800  0.500  8.665579  86.5711  0.014927  0.000196
  10539.684  10539.700  0.500  8.967256  86.542  0.011036  0.000015
  10540.604  10540.600  0.500  9.038292  86.697  0.010297  -0.000086
  10541.510  10541.500  0.500  8.833517  86.7253  0.012641  0.000000
  10542.396  10542.400  0.500  8.507554  86.7452  0.017517  0.000049
  10543.283  10543.300  0.500  8.125910  86.7227  0.025650  -0.000071
  10544.193  10544.200  0.500  7.755432  86.7031  0.037144  0.000013
  10545.100  10545.100  0.500  7.431391  86.6839  0.051348  0.000196
  10545.996  10546.000  0.500  7.192212  86.6641  0.065208  0.000322
  10546.908  10546.900  0.500  7.034097  86.6425  0.076359  0.000626
  10547.814  10547.800  0.500  6.935182  86.6231  0.084280  0.000875
  10548.692  10548.700  0.500  6.868692  86.5948  0.090044  0.001280
  10549.590  10549.600  0.500  6.811932  86.5764  0.095283  0.001620
  10550.502  10550.500  0.500  6.773570  86.5499  0.098979  0.001792
  10551.399  10551.400  0.500  6.759237  86.5272  0.100381  0.001958
  10552.297  10552.300  0.500  6.750931  86.5092  0.101198  0.002029
  10553.205  10553.200  0.500  6.741368  86.4868  0.102144  0.002232
  10554.108  10554.100  0.500  6.711750  86.4678  0.105191  0.002308
  10555.001  10555.000  0.500  6.660363  86.4299  0.110689  0.002532
  10555.895  10555.900  0.500  6.585224  86.3282  0.119186  0.002732
  10556.798  10556.800  0.500  6.497452  86.3018  0.130080  0.003052
  10557.706  10557.700  0.500  6.413635  86.3061  0.141461  0.003548
  10558.596  10558.600  0.500  6.340359  86.1498  0.151940  0.003941
  10559.500  10559.500  0.500  6.281371  86.2238  0.161310  0.004223
  10560.297  10560.300  0.500  6.243196  86.3144  0.167764  0.004464
  10563.325  10563.310  0.500  6.229891  86.263  0.169909  0.004704
  10566.509  10566.500  0.500  6.267461  86.1991  0.163523  0.004431
  10569.864  10569.860  0.500  6.216763  86.1308  0.171891  0.004469
  10573.392  10573.380  0.500  6.151132  86.0636  0.183407  0.004794
  10577.091  10577.080  0.500  6.074633  85.991  0.197822  0.005088
  10580.968  10580.950  0.500  6.010658  85.9142  0.210702  0.005055
  10585.013  10585.000  0.500  6.045760  85.8103  0.203189  0.004557
  10589.227  10589.210  0.500  6.096819  85.7617  0.192965  0.003813
  10593.599  10593.590  0.500  6.125439  85.6737  0.187328  0.003734
  10598.161  10598.150  0.500  6.155871  85.5512  0.181453  0.003871
  10602.897  10602.880  0.500  6.164553  85.4948  0.179766  0.004132
  10607.808  10607.780  0.500  6.153490  85.3844  0.181532  0.004384
  10612.870  10612.850  0.500  6.125806  85.2396  0.186311  0.004757
  10618.108  10618.090  0.500  6.082231  85.1624  0.194432  0.005125
  10623.528  10623.510  0.500  6.024110  85.0955  0.205906  0.005227
  10629.095  10629.090  0.500  6.002436  84.9868  0.210149  0.005298
  10634.860  10634.850  0.500  6.047221  84.8716  0.200672  0.005042
  10640.793  10640.780  0.500  6.072593  84.7385  0.195338  0.004860
  10646.899  10646.880  0.500  6.088225  84.6583  0.192126  0.004781
  10653.176  10653.150  0.500  6.099206  84.521  0.189720  0.004583
  10659.608  10659.590  0.500  6.139287  84.3701  0.181941  0.004264
  10666.210  10666.200  0.500  6.156502  84.275  0.178634  0.004158
  10672.994  10672.990  0.500  6.118527  84.1263  0.185221  0.004261
  10679.959  10679.950  0.500  6.019460  83.6392  0.203325  0.004755
  10687.093  10687.070  0.500  5.973547  83.8626  0.213447  0.005301
  10694.380  10694.370  0.500  6.000570  83.709  0.207376  0.005090
  10701.851  10701.850  0.500  6.021207  83.5878  0.202846  0.005144
  10709.507  10709.490  0.500  6.040453  83.4323  0.198609  0.004977
  10717.318  10717.300  0.500  6.045580  83.2809  0.197235  0.005050
  10725.301  10725.290  0.500  6.066697  83.1203  0.192741  0.005031
  10733.455  10733.450  0.500  6.094361  82.9688  0.187140  0.004778
  10741.783  10741.770  0.500  6.043342  82.6582  0.196198  0.004988
  10750.279  10750.270  0.500  5.968239  82.6328  0.211436  0.005397
  10758.964  10758.950  0.500  5.953535  82.4568  0.214111  0.005367
  10767.805  10767.790  0.500  5.927337  82.2884  0.219345  0.005564
  10776.796  10776.800  0.500  5.932499  82.1151  0.217757  0.005534
  10786.000  10785.990  0.500  5.987845  81.6525  0.204872  0.005189
  10795.356  10795.350  0.500  6.013550  82.0115  0.200550  0.005316
  10804.901  10804.870  0.500  5.994769  81.8128  0.203857  0.005418
  10814.564  10814.570  0.500  5.955628  81.4649  0.211093  0.005841
  10824.449  10824.450  0.500  5.912909  81.4724  0.220326  0.005802
  10834.586  10834.490  0.500  5.891300  81.2648  0.224566  0.006090
  10844.697  10844.700  0.500  5.882823  81.0482  0.225874  0.006128
  10855.103  10855.090  0.500  5.886341  80.5757  0.223768  0.006109
  10865.667  10865.650  0.500  5.911499  80.6494  0.218409  0.006022
  10876.407  10876.380  0.500  5.930606  80.3561  0.213496  0.005841
  10887.297  10887.280  0.500  5.897915  80.2395  0.220270  0.006020
  10898.358  10898.350  0.500  5.848201  80.0251  0.230879  0.006553
  10909.582  10909.590  0.500  5.826561  79.8142  0.235308  0.006644
  10921.011  10921.010  0.500  5.821383  79.5983  0.235890  0.006734
  10932.567  10932.590  0.500  5.807015  79.3752  0.238633  0.006915
  10944.347  10944.350  0.500  5.802416  79.1566  0.239073  0.006992
  10956.282  10956.280  0.500  5.804978  78.9182  0.237743  0.007061
  10968.374  10968.380  0.500  5.819208  78.6882  0.233701  0.006862
  10980.661  10980.650  0.500  5.809843  78.3846  0.234989  0.007090
  10993.092  10993.090  0.500  5.753381  78.2176  0.248109  0.007550
  11005.709  11005.710  0.500  5.713598  77.9758  0.257380  0.007777
  11018.503  11018.490  0.500  5.695010  77.7468  0.261440  0.008005
  11031.469  11031.450  0.500  5.702991  77.5063  0.258559  0.007997
  11044.579  11044.580  0.500  5.714634  77.249  0.254717  0.007982
  11057.905  11057.880  0.500  5.713105  77.0164  0.254339  0.008218
  11071.382  11071.350  0.500  5.696049  76.7778  0.257913  0.008257
  11085.015  11085.000  0.500  5.673482  76.5002  0.262845  0.008708
  11098.842  11098.810  0.500  5.644171  76.1555  0.269444  0.008972
  11112.833  11112.800  0.500  5.606958  75.9207  0.278798  0.009241
  11126.989  11126.960  0.500  5.584030  75.7103  0.284473  0.009576
  11141.317  11141.290  0.500  5.584238  75.4503  0.283437  0.009496
  11155.823  11155.790  0.500  5.584866  75.1803  0.282246  0.009664
  11170.475  11170.460  0.500  5.586025  74.9228  0.280953  0.009618
  11185.336  11185.300  0.500  5.571039  74.6384  0.284113  0.009834
  11200.340  11200.320  0.500  5.541878  74.3455  0.291372  0.010179
  11215.537  11215.500  0.500  5.520631  74.0682  0.296518  0.010649
  11230.887  11230.860  0.500  5.494883  73.7527  0.302957  0.011056
  11246.422  11246.390  0.500  5.453308  73.5886  0.315115  0.011609
  11262.111  11262.090  0.500  5.442189  73.2248  0.317063  0.011726
  11277.983  11277.960  0.500  5.448818  72.9054  0.313594  0.011817
  11294.039  11294.010  0.500  5.456805  72.5279  0.309489  0.011681
  11310.247  11310.220  0.500  5.434542  72.2779  0.315365  0.012103
  11326.641  11326.610  0.500  5.400680  71.9964  0.324957  0.012684
  11343.202  11343.170  0.500  5.372924  71.5764  0.332153  0.012903
  11359.912  11359.900  0.500  5.351438  63.7122  0.302080  0.012011
  11376.836  11376.800  0.500  5.326473  69.6283  0.338476  0.013638
  11388.189  11388.160  0.500  5.311365  70.7007  0.348921  0.014287