Folder: webxdiviewer/xdidata/Ru

Note: xdidata/README.md
# bmm-standards
A pretty webpage for BMM's collection of common XAFS materials

[BMM's common materials collection](./BMM-standards.html)

Plotting of the data will happen soon.

Periodic table adapted from [some guy named Daniel](https://codepen.io/gooseofmusic/pen/PjKdNQ)

[This](https://www.coderstool.com/scss-to-css) is a helpful tool for
dealing with Sassy CSS.

File: Ru-K-RuO2.xdi
# XDI/1.0 BlueSky/1.13.0a3 BMM/2024-2.0-py310-tiled
# Beamline.name: BMM (06BM) -- Beamline for Materials Measurement (NIST)
# Beamline.collimation: paraboloid mirror, 5 nm Rh on 30 nm Pt
# Beamline.xray_source: NSLS-II three-pole wiggler
# Beamline.focusing: not in use
# Beamline.harmonic_rejection: flat mirror, Pt stripe, pitch = 7.0 mrad relative to beam
# Beamline.software: Bluesky 1.13.0a4, Ophyd 1.9.0, DataBroker 2.0.0b45, Python 3.11.6, 2024-2.3-py311-tiled
# Detector.I0: 25 cm N2, NSLS2 IC
# Detector.It: 25 cm N2, NSLS2 IC
# Detector.Ir: 25 cm N2, NSLS2 IC
# Element.edge: K
# Element.symbol: Ru
# Element.reference: Ru
# Element.reference_material: RuO2
# Facility.name: NSLS-II
# Facility.energy: 3.0
# Facility.GUP: 316837
# Facility.SAF: 314472
# Facility.cycle: 2024-3
# Facility.current: 399.1
# Facility.mode: top-off
# Mono.name: Si(311)
# Mono.d_spacing: 1.63761
# Mono.encoder_resolution: 5e-06
# Mono.angle_offset: 16.0018
# Mono.direction: forward
# Mono.scan_type: step
# Mono.scan_mode: pseudo channel cut
# Sample.name: powder in PEG pellet
# Sample.prep: standard from reference wheel
# Sample.SDD_position: 205.0
# Sample.x: 81.363
# Sample.y: 170.212
# Scan.edge_energy: 22117.2
# Scan.experimenters: Bruce Ravel
# Scan.start_time: 2024-11-08T07:59:34
# Scan.end_time: 2024-11-08T08:09:45
# Scan.uid: b46d66fd-36ab-4c25-9588-32225de610c4
# Scan.transient_id: 3689
# Scan.plot_hint: ln(It/Ir)  --  ln($6/$7)
# Column.1: energy eV
# Column.2: requested_energy eV
# Column.3: measurement_time seconds
# Column.4: xmu
# Column.5: I0 nA
# Column.6: Itrans nA
# Column.7: Irefer nA
# //////////////////////////////////////////////////////////
#
# ----------------------------------------------------------
# energy requested_energy measurement_time xmu I0 It Ir
21917.3 21917.2 1.000000 -2.713427 10.0992 14.3077 0.948734
21947.3 21947.2 1.000000 -2.712721 9.831417 13.9345 0.924635
21977.2 21977.2 1.000000 -2.711849 9.247316 13.031 0.865441
22007.2 22007.2 1.000000 -2.709935 9.376888 13.3057 0.885375
22037.3 22037.2 1.000000 -2.708892 9.119126 12.9502 0.862622
22067.3 22067.2 1.000000 -2.709756 8.865880 12.5992 0.838513
22089.2 22089.2 1.000000 -2.713986 8.685636 12.3508 0.818513
22095.2 22095.2 1.000000 -2.716316 8.636937 12.2849 0.812252
22101.2 22101.2 1.000000 -2.720000 8.588230 12.2132 0.804540
22107.2 22107.2 1.000000 -2.726520 8.534986 12.146 0.794916
22108.6 22108.7 1.000000 -2.728379 8.517185 12.1229 0.791931
22110.1 22110.2 1.000000 -2.731273 8.506803 12.1122 0.788946
22111.7 22111.7 1.000000 -2.734849 8.494667 12.099 0.785270
22113.2 22113.2 1.000000 -2.739796 8.484951 12.0867 0.780604
22114.7 22114.7 1.000000 -2.745311 8.472636 12.0696 0.775211
22116.2 22116.2 1.000000 -2.753918 8.457512 12.0523 0.767464
22117.7 22117.7 1.000000 -2.764891 8.443181 12.0343 0.757957
22119.2 22119.2 1.000000 -2.782952 8.428800 12.0187 0.743421
22120.7 22120.7 1.000000 -2.803955 8.414913 12.0012 0.726915
22122.1 22122.2 1.000000 -2.824230 8.399126 11.9823 0.711204
22123.7 22123.7 1.000000 -2.841611 8.383199 11.963 0.697822
22125.2 22125.2 1.000000 -2.862966 8.365314 11.9414 0.681843
22126.7 22126.7 1.000000 -2.894520 8.350872 11.9258 0.659799
22128.2 22128.2 1.000000 -2.942835 8.332936 11.9026 0.627460
22129.7 22129.7 1.000000 -3.008096 8.318967 11.8866 0.587028
22131.2 22131.2 1.000000 -3.086825 8.305089 11.8734 0.541979
22132.7 22132.7 1.000000 -3.170714 8.292103 11.8556 0.497624
22134.2 22134.2 1.000000 -3.254291 8.306938 11.8779 0.458583
22135.7 22135.7 1.000000 -3.336324 8.289353 11.8578 0.421752
22137.2 22137.2 1.000000 -3.409705 8.275250 11.842 0.391391
22138.7 22138.7 1.000000 -3.468732 8.260246 11.8176 0.368194
22140.2 22140.2 1.000000 -3.507264 8.244304 11.8042 0.353876
22141.7 22141.7 1.000000 -3.528354 8.232391 11.7853 0.345935
22144.2 22144.2 1.000000 -3.529095 8.207344 11.7505 0.344658
22147.3 22147.3 1.000000 -3.510352 8.176712 11.7128 0.350055
22150.6 22150.6 1.000000 -3.504499 8.150367 11.676 0.351001
22154.2 22154.1 1.000000 -3.500863 8.120880 11.638 0.351134
22157.7 22157.7 1.000000 -3.451229 8.091122 11.5954 0.367650
22161.5 22161.5 1.000000 -3.380003 8.059208 11.5552 0.393424
22165.6 22165.5 1.000000 -3.340954 8.022325 11.501 0.407173
22169.7 22169.7 1.000000 -3.325630 7.987928 11.4551 0.411809
22174 22174 1.000000 -3.318552 7.952827 11.4064 0.412970
22178.5 22178.5 1.000000 -3.322642 7.911174 11.346 0.409107
22183.2 22183.2 1.000000 -3.335079 7.862381 11.2797 0.401691
22188.1 22188 1.000000 -3.348729 7.829892 11.2331 0.394608
22193 22193 1.000000 -3.366025 7.789738 11.179 0.385972
22198.3 22198.2 1.000000 -3.385529 7.747062 11.117 0.376417
22203.6 22203.6 1.000000 -3.404347 7.700862 11.0566 0.367395
22209.1 22209.1 1.000000 -3.417806 7.657128 10.9888 0.360259
22214.8 22214.8 1.000000 -3.417374 7.611005 10.9277 0.358410
22220.7 22220.7 1.000000 -3.408683 7.563051 10.8591 0.359269
22226.7 22226.7 1.000000 -3.395348 7.512626 10.7884 0.361723
22232.9 22232.9 1.000000 -3.378177 7.460547 10.7144 0.365463
22239.3 22239.3 1.000000 -3.366204 7.404606 10.6362 0.367167
22246.2 22245.9 1.000000 -3.355933 7.351702 10.5617 0.368358
22252.5 22252.6 1.000000 -3.351520 7.325628 10.5243 0.368677
22259.5 22259.5 1.000000 -3.350434 7.272204 10.4513 0.366519
22266.5 22266.6 1.000000 -3.350560 7.219236 10.3775 0.363883
22273.8 22273.8 1.000000 -3.352165 7.160128 10.2953 0.360423
22281.2 22281.2 1.000000 -3.352291 7.106461 10.2181 0.357677
22288.8 22288.8 1.000000 -3.356398 7.046283 10.1331 0.353247
22296.6 22296.6 1.000000 -3.359794 6.986742 10.0473 0.349068
22304.5 22304.5 1.000000 -3.366320 6.926527 9.961174 0.343824
22312.6 22312.6 1.000000 -3.365937 6.865434 9.875252 0.340989
22320.9 22320.9 1.000000 -3.357655 6.797780 9.782749 0.340604
22329.3 22329.3 1.000000 -3.347956 6.733079 9.685258 0.340496
22338 22337.9 1.000000 -3.337432 6.671154 9.599444 0.341050
22346.7 22346.7 1.000000 -3.332619 6.613402 9.518058 0.339790
22355.7 22355.7 1.000000 -3.330315 6.550052 9.426249 0.337288
22364.8 22364.8 1.000000 -3.331026 6.483950 9.331638 0.333666
22374.1 22374.1 1.000000 -3.331984 6.415891 9.238636 0.330024
22383.6 22383.6 1.000000 -3.329343 6.349412 9.144670 0.327531
22393.2 22393.2 1.000000 -3.326698 6.277276 9.039835 0.324634
22403 22403 1.000000 -3.323290 6.208245 8.940307 0.322156
22413.1 22413 1.000000 -3.324077 6.137356 8.843683 0.318423
22423.2 22423.2 1.000000 -3.325123 6.066880 8.739525 0.314344
22433.6 22433.5 1.000000 -3.324853 5.993101 8.635403 0.310683
22444 22444 1.000000 -3.322444 5.918408 8.529521 0.307614
22454.7 22454.7 1.000000 -3.318541 5.846294 8.424999 0.305032
22465.5 22465.5 1.000000 -3.313758 5.786412 8.342139 0.303480
22476.5 22476.5 1.000000 -3.310821 5.710412 8.233121 0.300395
22487.7 22487.7 1.000000 -3.308205 5.624967 8.109343 0.296654
22499.1 22499.1 1.000000 -3.306854 5.550436 8.003493 0.293178
22510.6 22510.6 1.000000 -3.305436 5.475374 7.896360 0.289664
22522.3 22522.3 1.000000 -3.303605 5.396491 7.782926 0.286026
22534.2 22534.2 1.000000 -3.300760 5.312810 7.665051 0.282496
22546.3 22546.2 1.000000 -3.301007 5.226842 7.540072 0.277822
22558.5 22558.4 1.000000 -3.300651 5.151545 7.432250 0.273947
22570.9 22570.8 1.000000 -3.298625 5.071408 7.314907 0.270168
22583.4 22583.4 1.000000 -3.297393 4.989922 7.200561 0.266273
22596.1 22596.1 1.000000 -3.293528 4.901771 7.074519 0.262625
22609 22609 1.000000 -3.290106 4.820087 6.955055 0.259075
22622.1 22622.1 1.000000 -3.286278 4.733797 6.832601 0.255490
22635.4 22635.3 1.000000 -3.285023 4.646932 6.708184 0.251153
22648.8 22648.7 1.000000 -3.283210 4.559177 6.583647 0.246937
22662.4 22662.3 1.000000 -3.283307 4.475688 6.460337 0.242289
22676.1 22676.1 1.000000 -3.280852 4.387041 6.334449 0.238151
22690.1 22690 1.000000 -3.275582 4.296029 6.206806 0.234585
22704.2 22704.1 1.000000 -3.274969 4.198491 6.063844 0.229323
22718.5 22718.4 1.000000 -3.274648 4.114689 5.945370 0.224914
22732.9 22732.8 1.000000 -3.270505 4.022714 5.813802 0.220850
22747.5 22747.5 1.000000 -3.270356 3.933119 5.684804 0.215982
22762.3 22762.2 1.000000 -3.268100 3.843448 5.554015 0.211490
22777.3 22777.2 1.000000 -3.263150 3.749807 5.420584 0.207433
22792.4 22792.3 1.000000 -3.261271 3.660810 5.291889 0.202889
22807.7 22807.6 1.000000 -3.258859 3.567078 5.157691 0.198221
22823.1 22823.1 1.000000 -3.257410 3.474616 5.023233 0.193334
22838.8 22838.7 1.000000 -3.255627 3.383601 4.893846 0.188690
22854.6 22854.5 1.000000 -3.252464 3.297483 4.766496 0.184362
22870.6 22870.5 1.000000 -3.250180 3.212120 4.645590 0.180097
22886.8 22886.7 1.000000 -3.244785 3.125224 4.520603 0.176199
22903.1 22903 1.000000 -3.244098 3.036556 4.392796 0.171335
22919.6 22919.5 1.000000 -3.241731 2.945925 4.262772 0.166658
22936.3 22936.2 1.000000 -3.240654 2.857487 4.137531 0.161936
22953.1 22953 1.000000 -3.237861 2.768352 4.007003 0.157266
22970 22970.1 1.000000 -3.234636 2.678824 3.877414 0.152671