Folder: webxdiviewer/xdidata/Sm (part 2)

File: Sm-L3-Sm2O3-m.xdi
# XDI/1.0 BlueSky/1.10.0 BMM/2023-1.0-py310-tiled
# Beamline.name: BMM (06BM) -- Beamline for Materials Measurement (NIST)
# Beamline.xray_source: NSLS-II three-pole wiggler
# Beamline.collimation: paraboloid mirror, 5 nm Rh on 30 nm Pt
# Beamline.focusing: not in use
# Beamline.harmonic_rejection: flat mirror, Si stripe, pitch = 7.0 mrad relative to beam
# Beamline.software: Bluesky 1.10.0, Ophyd 1.7.0, DataBroker 2.0.0b13, Python 3.10.8, 2023-1.0-py310-tiled
# Detector.I0: 10 cm N2
# Detector.I1: 25 cm N2
# Detector.I2: 25 cm N2
# Element.symbol: Sm
# Element.edge: L3
# Element.reference: Sm
# Element.reference_material: Sm2O3
# Facility.name: NSLS-II
# Facility.energy: 3.0
# Facility.current: 400.4
# Facility.mode: top-off
# Facility.GUP: 123456
# Facility.SAF: 301027
# Facility.cycle: 2023-2
# Mono.name: Si(111)
# Mono.d_spacing: 3.13519
# Mono.encoder_resolution: 0.0000050 deg/ct
# Mono.angle_offset: 16.0754 deg
# Mono.scan_mode: pseudo channel cut
# Mono.scan_type: step
# Mono.direction: forward in energy
# Sample.name: monoclinic Sm2O3
# Sample.prep: Powder in PEG pellet
# Sample.x: 123.848 mm
# Sample.y: 114.690 mm
# Sample.SDD_position: 205.000 mm
# Scan.experimenters: Bruce Ravel
# Scan.edge_energy: 6716.2
# Scan.start_time: 2023-05-08T17:04:37
# Scan.end_time: 2023-05-08T17:10:37
# Scan.transient_id: 75429
# Scan.uid: e05edf53-603b-4715-95c1-99ade5ac536b
# Scan.plot_hint: ln(I0/It)  --  ln($5/$6)
# Column.1: energy eV
# Column.2: requested_energy eV
# Column.3: measurement_time seconds
# Column.4: xmu
# Column.5: I0 nA
# Column.6: It nA
# Column.7: Ir nA
# ///////////
# sample courtesy Martin Stennett, University of Sheffield
# -----------
# energy  requested_energy  measurement_time  xmu  I0  It  Ir
  6516.201  6516.200  0.500  2.433968  151.045  13.2448  1.112405
  6536.214  6536.200  0.500  2.407377  151.423  13.6358  1.169639
  6556.216  6556.200  0.500  2.380868  151.721  14.0297  1.228071
  6576.216  6576.200  0.500  2.354843  152.06  14.4317  1.289467
  6596.215  6596.200  0.500  2.329198  152.341  14.8341  1.352836
  6616.181  6616.200  0.500  2.304082  152.671  15.2443  1.419009
  6636.183  6636.200  0.500  2.278839  152.936  15.6612  1.486467
  6656.187  6656.200  0.500  2.255740  153.161  16.0507  1.551129
  6676.187  6676.200  0.500  2.235833  153.344  16.3929  1.608594
  6688.193  6688.200  0.500  2.230838  153.449  16.4863  1.624225
  6692.184  6692.200  0.500  2.232143  153.476  16.4677  1.620465
  6696.194  6696.200  0.500  2.237079  153.488  16.3879  1.606699
  6700.191  6700.200  0.500  2.247677  153.497  16.2161  1.577220
  6704.194  6704.200  0.500  2.270354  153.517  15.8545  1.514227
  6706.685  6706.700  0.500  2.299329  153.518  15.4019  1.438657
  6707.685  6707.700  0.500  2.317385  153.515  15.126  1.392658
  6708.685  6708.700  0.500  2.342922  153.522  14.7452  1.331941
  6709.688  6709.700  0.500  2.378120  153.527  14.2358  1.251603
  6710.688  6710.700  0.500  2.419801  153.505  13.6527  1.162202
  6711.690  6711.700  0.500  2.461419  153.514  13.0969  1.080313
  6712.689  6712.700  0.500  2.523156  153.515  12.3129  0.969257
  6713.689  6713.700  0.500  2.612846  153.519  11.2568  0.828541
  6714.695  6714.700  0.500  2.735167  153.524  9.961099  0.670116
  6715.691  6715.700  0.500  2.909305  153.523  8.369093  0.496849
  6716.688  6716.700  0.500  3.188815  153.525  6.328393  0.308350
  6717.693  6717.700  0.500  3.582513  153.511  4.268486  0.157837
  6718.692  6718.700  0.500  4.070929  153.515  2.619205  0.068860
  6719.690  6719.700  0.500  4.531767  153.505  1.651971  0.031401
  6720.694  6720.700  0.500  4.885449  153.509  1.159876  0.017240
  6721.691  6721.700  0.500  5.054673  153.511  0.979318  0.012811
  6722.699  6722.700  0.500  5.019446  153.514  1.014446  0.013492
  6723.696  6723.700  0.500  4.821107  153.522  1.237059  0.018521
  6724.694  6724.700  0.500  4.532599  153.525  1.650802  0.030044
  6725.701  6725.700  0.500  4.226183  153.532  2.242806  0.050890
  6726.699  6726.700  0.500  3.955188  153.532  2.940922  0.080441
  6727.698  6727.700  0.500  3.737572  153.532  3.655873  0.116802
  6728.704  6728.700  0.500  3.582769  153.53  4.267916  0.152197
  6729.701  6729.700  0.500  3.486655  153.515  4.698014  0.179530
  6730.699  6730.700  0.500  3.433754  153.507  4.953004  0.196656
  6731.702  6731.700  0.500  3.405419  153.496  5.094964  0.206546
  6732.697  6732.700  0.500  3.388737  153.484  5.180273  0.212278
  6733.703  6733.700  0.500  3.376707  153.482  5.242895  0.216592
  6734.703  6734.700  0.500  3.368720  153.495  5.285411  0.219849
  6735.704  6735.700  0.500  3.362977  153.487  5.315570  0.222442
  6736.696  6736.700  0.500  3.359761  153.486  5.332640  0.223929
  6737.699  6737.700  0.500  3.358779  153.468  5.337277  0.225036
  6738.701  6738.700  0.500  3.357292  154.06  5.365835  0.226886
  6739.701  6739.700  0.500  3.355352  154.052  5.375965  0.227345
  6740.698  6740.700  0.500  3.352832  154.059  5.389783  0.228016
  6742.198  6742.190  0.500  3.346843  154.063  5.422298  0.229017
  6744.218  6744.210  0.500  3.343514  154.058  5.440195  0.227843
  6746.328  6746.320  0.500  3.361963  154.05  5.340489  0.218687
  6748.514  6748.500  0.500  3.405493  154.044  5.112787  0.201880
  6750.769  6750.760  0.500  3.463415  154.048  4.825175  0.182437
  6753.101  6753.090  0.500  3.522971  154.057  4.546473  0.164930
  6755.515  6755.500  0.500  3.567735  154.058  4.347474  0.153562
  6757.989  6757.980  0.500  3.578706  154.054  4.299928  0.151402
  6760.549  6760.540  0.500  3.550834  154.048  4.421269  0.159420
  6763.186  6763.180  0.500  3.499259  154.041  4.655088  0.174386
  6765.907  6765.900  0.500  3.446910  154.049  4.905509  0.191251
  6768.704  6768.690  0.500  3.409793  154.045  5.090876  0.204678
  6771.563  6771.550  0.500  3.390130  154.051  5.192191  0.212068
  6774.495  6774.490  0.500  3.382492  154.059  5.232251  0.215109
  6777.519  6777.510  0.500  3.381969  154.072  5.235451  0.215772
  6780.619  6780.610  0.500  3.381581  154.087  5.237993  0.215766
  6783.788  6783.780  0.500  3.379246  154.091  5.250375  0.216007
  6787.040  6787.030  0.500  3.377604  154.131  5.260368  0.215637
  6790.361  6790.350  0.500  3.376895  154.167  5.265317  0.215229
  6793.754  6793.750  0.500  3.379598  152.746  5.202693  0.211366
  6797.239  6797.230  0.500  3.386395  153.273  5.185297  0.208858
  6800.791  6800.780  0.500  3.389969  153.767  5.183434  0.208156
  6804.422  6804.410  0.500  3.388352  153.853  5.194734  0.209216
  6808.124  6808.110  0.500  3.390176  153.827  5.184384  0.208910
  6811.902  6811.890  0.500  3.393104  145.748  4.897736  0.197344
  6815.745  6815.750  0.500  3.392847  153.673  5.165374  0.209566
  6819.685  6819.680  0.500  3.389407  153.748  5.185716  0.211616
  6823.701  6823.690  0.500  3.381314  143.23  4.870202  0.199996
  6827.789  6827.780  0.500  3.371553  153.515  5.271135  0.217971
  6831.947  6831.940  0.500  3.358401  153.62  5.344558  0.222788
  6836.187  6836.180  0.500  3.340989  153.632  5.438877  0.229030
  6840.498  6840.490  0.500  3.323822  142.431  5.129650  0.218885
  6844.890  6844.880  0.500  3.314218  153.076  5.566205  0.238746
  6849.357  6849.350  0.500  3.314569  153.247  5.570500  0.239282
[...]
  6903.520  6903.510  0.500  3.277605  153.325  5.783185  0.255951
  6908.903  6908.890  0.500  3.272404  153.264  5.811044  0.257771
  6914.358  6914.350  0.500  3.262848  153.14  5.862070  0.261636
  6919.888  6919.880  0.500  3.249827  153.015  5.934076  0.267182
  6925.503  6925.490  0.500  3.237520  152.941  6.004631  0.272635
  6931.182  6931.170  0.500  3.226727  152.87  6.066983  0.277746
  6936.948  6936.940  0.500  3.218964  152.827  6.112540  0.281394
  6942.779  6942.770  0.500  3.214756  152.784  6.136605  0.283621
  6948.697  6948.690  0.500  3.211278  152.71  6.154992  0.285264
  6954.690  6954.680  0.500  3.207191  152.663  6.178281  0.286896
  6960.751  6960.750  0.500  3.200741  152.604  6.215862  0.290218
  6966.897  6966.890  0.500  3.192423  152.56  6.265993  0.293862
  6973.121  6973.110  0.500  3.184514  152.5  6.313249  0.298425
  6979.403  6979.400  0.500  3.174432  152.422  6.373967  0.303680
  6985.774  6985.770  0.500  3.164438  152.339  6.434484  0.308906
  6992.223  6992.220  0.500  3.158026  152.259  6.472467  0.312250
  6998.757  6998.750  0.500  3.153714  152.157  6.496075  0.314418
  7005.360  7005.350  0.500  3.147363  152.077  6.534033  0.317752
  7012.031  7012.020  0.500  3.137747  151.958  6.592010  0.322756
  7018.779  7018.770  0.500  3.127302  151.874  6.657554  0.328274
  7025.603  7025.600  0.500  3.117987  151.786  6.715955  0.333486
  7032.525  7032.510  0.500  3.108446  151.677  6.775437  0.339278
  7039.501  7039.490  0.500  3.097535  151.573  6.845108  0.345468
  7046.566  7046.550  0.500  3.086882  151.433  6.912009  0.351646
  7053.693  7053.680  0.500  3.078239  151.312  6.966450  0.356438
  7060.893  7060.890  0.500  3.070538  151.213  7.015693  0.360862
  7068.196  7068.180  0.500  3.063899  151.029  7.053861  0.365198
  7075.558  7075.540  0.500  3.056676  149.524  7.034182  0.366214
  7082.998  7082.980  0.500  3.047565  149.417  7.093464  0.371881
  7090.501  7090.490  0.500  3.038612  150.525  7.210361  0.380932
  7098.097  7098.080  0.500  3.028136  150.376  7.279062  0.387412
  7105.775  7105.750  0.500  3.016761  150.204  7.353935  0.394803
  7113.517  7113.490  0.500  3.005883  149.788  7.413743  0.401182
  7121.309  7121.310  0.500  2.996490  149.424  7.465534  0.406912
  7129.226  7129.210  0.500  2.987329  148.925  7.509100  0.412456
  7137.192  7137.180  0.500  2.977697  148.577  7.564065  0.418506
  7145.266  7145.230  0.500  2.968394  148.47  7.629233  0.425185
  7153.391  7153.350  0.500  2.957882  148.302  7.701132  0.432549
  7161.572  7161.550  0.500  2.947668  148.083  7.768701  0.440002
  7169.849  7169.830  0.500  2.936895  148.259  7.862188  0.448877
  7178.159  7178.180  0.500  2.925347  148.006  7.939948  0.457178
  7186.593  7186.610  0.500  2.913978  147.729  8.015693  0.465430
  7195.088  7195.110  0.500  2.902795  147.361  8.085638  0.473457
  7203.682  7203.690  0.500  2.891954  147.077  8.158022  0.482146
  7212.335  7212.350  0.500  2.881807  146.731  8.221817  0.489455
  7221.073  7221.090  0.500  2.871721  146.378  8.285198  0.497261
  7229.884  7229.900  0.500  2.861753  146.198  8.357934  0.505240
  7238.763  7238.780  0.500  2.851354  145.856  8.425516  0.513705
  7247.722  7247.740  0.500  2.839148  145.444  8.504916  0.523123
  7256.787  7256.780  0.500  2.826302  145.297  8.606167  0.534160
  7265.882  7265.900  0.500  2.814125  144.197  8.645616  0.541965
  7275.071  7275.090  0.500  2.802507  145.011  8.796030  0.556442
  7284.343  7284.360  0.500  2.792568  142.369  8.722060  0.556759
  7289.009  7289.020  0.500  2.787905  144.674  8.904697  0.570232

File: Sm-L3-Sm2TiO5.xdi
# XDI/1.0 BlueSky/1.10.0 BMM/2023-1.0-py310-tiled
# Beamline.name: BMM (06BM) -- Beamline for Materials Measurement (NIST)
# Beamline.xray_source: NSLS-II three-pole wiggler
# Beamline.collimation: paraboloid mirror, 5 nm Rh on 30 nm Pt
# Beamline.focusing: not in use
# Beamline.harmonic_rejection: flat mirror, Si stripe, pitch = 7.0 mrad relative to beam
# Beamline.software: Bluesky 1.10.0, Ophyd 1.7.0, DataBroker 2.0.0b13, Python 3.10.8, 2023-1.0-py310-tiled
# Detector.I0: 10 cm N2
# Detector.I1: 25 cm N2
# Detector.I2: 25 cm N2
# Element.symbol: Sm
# Element.edge: L3
# Element.reference: Sm
# Element.reference_material: Sm2O3
# Facility.name: NSLS-II
# Facility.energy: 3.0
# Facility.current: 400.2
# Facility.mode: top-off
# Facility.GUP: 123456
# Facility.SAF: 301027
# Facility.cycle: 2023-2
# Mono.name: Si(111)
# Mono.d_spacing: 3.13519
# Mono.encoder_resolution: 0.0000050 deg/ct
# Mono.angle_offset: 16.0754 deg
# Mono.scan_mode: pseudo channel cut
# Mono.scan_type: step
# Mono.direction: forward in energy
# Sample.name: Sm2TiO5
# Sample.prep: Powder in PEG pellet
# Sample.x: 149.848 mm
# Sample.y: 114.690 mm
# Sample.SDD_position: 205.000 mm
# Scan.experimenters: Bruce Ravel
# Scan.edge_energy: 6716.2
# Scan.start_time: 2023-05-08T17:11:21
# Scan.end_time: 2023-05-08T17:17:26
# Scan.transient_id: 75434
# Scan.uid: bf9bc973-270c-40ed-9c1e-74203cf8906c
# Scan.plot_hint: ln(I0/It)  --  ln($5/$6)
# Column.1: energy eV
# Column.2: requested_energy eV
# Column.3: measurement_time seconds
# Column.4: xmu
# Column.5: I0 nA
# Column.6: It nA
# Column.7: Ir nA
# ///////////
# sample courtesy Martin Stennett, University of Sheffield
# -----------
# energy  requested_energy  measurement_time  xmu  I0  It  Ir
  6516.205  6516.200  0.500  2.148504  150.957  17.6104  1.500187
  6536.230  6536.200  0.500  2.125246  151.355  18.0724  1.571740
  6556.209  6556.200  0.500  2.103080  151.626  18.5105  1.643288
  6576.214  6576.200  0.500  2.080404  151.988  18.9802  1.718915
  6596.217  6596.200  0.500  2.058143  152.288  19.4458  1.797126
  6616.216  6616.200  0.500  2.036285  152.56  19.911  1.877485
  6636.215  6636.200  0.500  2.015340  152.826  20.368  1.958196
  6657.153  6656.200  0.500  1.993840  152.831  20.8113  2.038046
  6676.178  6676.200  0.500  1.973688  153.234  21.2908  2.116259
  6688.185  6688.200  0.500  1.962843  153.352  21.5397  2.150796
  6692.188  6692.200  0.500  1.959887  153.385  21.6079  2.155963
  6696.190  6696.200  0.500  1.958071  153.398  21.6492  2.152816
  6700.189  6700.200  0.500  1.956824  153.406  21.6772  2.138666
  6704.196  6704.200  0.500  1.957621  153.428  21.6631  2.101978
  6706.685  6706.700  0.500  1.961054  153.444  21.5912  2.050275
  6707.681  6707.700  0.500  1.963335  153.445  21.542  2.018605
  6708.682  6708.700  0.500  1.967026  153.424  21.4597  1.973339
  6709.684  6709.700  0.500  1.972045  153.428  21.3529  1.913458
  6710.687  6710.700  0.500  1.978225  153.418  21.2199  1.844600
  6711.688  6711.700  0.500  1.984097  153.411  21.0948  1.779495
  6712.689  6712.700  0.500  1.992736  153.412  20.9135  1.687026
  6713.687  6713.700  0.500  2.005347  153.423  20.6528  1.562943
  6714.691  6714.700  0.500  2.021201  153.417  20.3272  1.413044
  6715.693  6715.700  0.500  2.042699  153.433  19.8969  1.226941
  6716.688  6716.700  0.500  2.074460  153.425  19.2738  0.985114
  6717.691  6717.700  0.500  2.114268  153.422  18.5213  0.731671
  6718.698  6718.700  0.500  2.154950  153.402  17.7807  0.517541
  6719.696  6719.700  0.500  2.187544  153.38  17.208  0.383445
  6720.694  6720.700  0.500  2.209076  153.388  16.8423  0.312632
  6721.700  6721.700  0.500  2.218928  153.399  16.6784  0.285824
  6722.697  6722.700  0.500  2.218875  153.416  16.6811  0.290785
  6723.696  6723.700  0.500  2.208720  153.401  16.8497  0.322765
  6724.696  6724.700  0.500  2.189574  153.412  17.1767  0.381356
  6725.699  6725.700  0.500  2.166066  153.41  17.585  0.461780
  6726.696  6726.700  0.500  2.142611  153.417  18.0032  0.553522
  6727.702  6727.700  0.500  2.121899  153.425  18.3809  0.646294
  6728.700  6728.700  0.500  2.106531  153.414  18.6642  0.722738
  6729.698  6729.700  0.500  2.094870  153.395  18.8808  0.777825
  6730.706  6730.700  0.500  2.087604  153.399  19.019  0.810914
  6731.704  6731.700  0.500  2.081259  153.386  19.1384  0.831104
  6732.702  6732.700  0.500  2.077428  153.371  19.2101  0.842526
  6733.701  6733.700  0.500  2.074986  153.368  19.2567  0.851114
  6734.705  6734.700  0.500  2.074016  153.912  19.3436  0.860569
  6735.706  6735.700  0.500  2.073983  153.898  19.3426  0.865183
  6736.702  6736.700  0.500  2.074668  153.901  19.3297  0.867902
  6737.697  6737.700  0.500  2.075090  153.893  19.3206  0.870034
  6738.703  6738.700  0.500  2.075828  153.885  19.3053  0.871300
  6739.696  6739.700  0.500  2.075344  153.895  19.3158  0.872736
  6740.692  6740.700  0.500  2.074256  153.906  19.3382  0.873943
  6742.194  6742.190  0.500  2.072054  153.899  19.3801  0.874906
  6744.218  6744.210  0.500  2.067756  153.892  19.4626  0.871919
  6746.328  6746.320  0.500  2.067178  153.875  19.4717  0.855405
  6748.516  6748.500  0.500  2.071195  153.879  19.3942  0.823397
  6750.781  6750.760  0.500  2.077725  153.875  19.2675  0.786289
  6753.080  6753.090  0.500  2.084487  153.86  19.1357  0.754161
  6755.498  6755.500  0.500  2.088225  153.868  19.0654  0.733997
  6757.979  6757.980  0.500  2.086799  153.875  19.0933  0.733196
  6760.544  6760.540  0.500  2.079345  153.858  19.2342  0.753590
  6763.187  6763.180  0.500  2.069455  153.864  19.4261  0.787684
  6765.905  6765.900  0.500  2.060807  153.871  19.5957  0.823965
  6768.704  6768.690  0.500  2.054667  153.876  19.717  0.851060
  6771.555  6771.550  0.500  2.050513  153.883  19.7999  0.867364
  6774.495  6774.490  0.500  2.047328  153.895  19.8647  0.876194
  6777.517  6777.510  0.500  2.044187  153.902  19.928  0.880320
  6780.613  6780.610  0.500  2.040855  153.921  19.9971  0.883694
  6783.780  6783.780  0.500  2.038441  153.929  20.0465  0.885140
  6787.036  6787.030  0.500  2.036557  153.956  20.0877  0.884794
  6790.350  6790.350  0.500  2.034526  153.996  20.1338  0.883707
  6793.754  6793.750  0.500  2.032691  152.692  20  0.873384
  6797.231  6797.230  0.500  2.031248  153.107  20.0833  0.870301
  6800.780  6800.780  0.500  2.030147  153.61  20.1715  0.872591
  6804.418  6804.410  0.500  2.028307  153.698  20.2202  0.876445
  6808.114  6808.110  0.500  2.025227  153.676  20.2797  0.880724
  6811.900  6811.890  0.500  2.021101  145.209  19.2416  0.833219
  6815.759  6815.750  0.500  2.016651  153.539  20.4361  0.892602
  6819.685  6819.680  0.500  2.012172  153.619  20.5386  0.901425
  6823.695  6823.690  0.500  2.007853  142.896  19.1876  0.846265
  6827.785  6827.780  0.500  2.003335  153.4  20.6913  0.919202
  6831.949  6831.940  0.500  1.998367  153.508  20.809  0.931362
  6836.191  6836.180  0.500  1.993144  153.518  20.9193  0.945228
  6840.500  6840.490  0.500  1.988378  142.447  19.5035  0.891891
  6844.886  6844.880  0.500  1.984248  152.971  21.0311  0.966597
  6849.359  6849.350  0.500  1.980507  153.148  21.1342  0.971818
  6853.904  6853.890  0.500  1.977725  153.2  21.2004  0.972148
  6858.514  6858.510  0.500  1.974695  153.216  21.267  0.973048
[...]
  6898.212  6898.200  0.500  1.939673  153.323  22.0403  1.042018
  6903.522  6903.510  0.500  1.934735  153.282  22.1436  1.048720
  6908.907  6908.890  0.500  1.929700  153.226  22.2472  1.056729
  6914.354  6914.350  0.500  1.924179  153.091  22.3506  1.067751
  6919.892  6919.880  0.500  1.919133  152.972  22.4462  1.080623
  6925.503  6925.490  0.500  1.914263  152.899  22.545  1.094079
  6931.184  6931.170  0.500  1.909376  152.826  22.6446  1.106797
  6936.950  6936.940  0.500  1.904579  152.788  22.7478  1.118824
  6942.779  6942.770  0.500  1.900470  152.744  22.835  1.127007
  6948.701  6948.690  0.500  1.895562  152.663  22.9351  1.134783
  6954.692  6954.680  0.500  1.890499  152.615  23.0443  1.143068
  6960.765  6960.750  0.500  1.884964  152.559  23.1637  1.153510
  6966.899  6966.890  0.500  1.879252  152.52  23.2905  1.167157
  6973.117  6973.110  0.500  1.873911  152.456  23.4054  1.180115
  6979.409  6979.400  0.500  1.868524  152.372  23.5188  1.194850
  6985.782  6985.770  0.500  1.863066  152.295  23.6355  1.209349
  6992.232  6992.220  0.500  1.857958  152.226  23.7458  1.220642
  6998.762  6998.750  0.500  1.852505  152.116  23.8584  1.230793
  7005.363  7005.350  0.500  1.847168  152.026  23.972  1.241504
  7012.031  7012.020  0.500  1.841206  151.913  24.0974  1.255914
  7018.779  7018.770  0.500  1.835084  151.833  24.2325  1.271461
  7025.607  7025.600  0.500  1.828771  151.742  24.3714  1.287398
  7032.521  7032.510  0.500  1.823336  151.628  24.4857  1.303052
  7039.497  7039.490  0.500  1.817428  151.51  24.6117  1.320653
  7046.555  7046.550  0.500  1.811609  151.384  24.7347  1.336873
  7053.687  7053.680  0.500  1.806129  151.271  24.8522  1.350929
  7060.897  7060.890  0.500  1.800817  151.17  24.9678  1.364823
  7068.182  7068.180  0.500  1.794865  150.984  25.086  1.378463
  7075.544  7075.540  0.500  1.788547  149.424  24.9841  1.380799
  7082.983  7082.980  0.500  1.782185  149.391  25.1381  1.398600
  7090.497  7090.490  0.500  1.776210  150.458  25.4693  1.426520
  7098.089  7098.080  0.500  1.769527  150.299  25.613  1.445856
  7105.753  7105.750  0.500  1.763465  150.146  25.7424  1.464841
  7113.498  7113.490  0.500  1.757056  149.728  25.8358  1.481266
  7121.317  7121.310  0.500  1.751448  149.37  25.919  1.496930
  7129.220  7129.210  0.500  1.745284  149.429  26.0896  1.516792
  7137.188  7137.180  0.500  1.739108  149.082  26.1903  1.534013
  7145.238  7145.230  0.500  1.732618  148.966  26.3403  1.553986
  7153.354  7153.350  0.500  1.725996  148.826  26.4903  1.574142
  7161.559  7161.550  0.500  1.719347  148.606  26.6277  1.594011
  7169.843  7169.830  0.500  1.712910  148.289  26.7425  1.613451
  7178.199  7178.180  0.500  1.706513  148.031  26.8674  1.634354
  7186.641  7186.610  0.500  1.700177  147.766  26.9897  1.655384
  7195.123  7195.110  0.500  1.693918  147.4  27.0919  1.675909
  7203.706  7203.690  0.500  1.687409  147.134  27.2196  1.697214
  7212.370  7212.350  0.500  1.680906  146.771  27.3296  1.717312
  7221.111  7221.090  0.500  1.674191  146.409  27.4458  1.737262
  7229.900  7229.900  0.500  1.667174  146.223  27.6039  1.759791
  7238.770  7238.780  0.500  1.659782  145.874  27.7423  1.782724
  7247.751  7247.740  0.500  1.653170  145.469  27.8488  1.805147
  7256.767  7256.780  0.500  1.646497  145.304  28.0036  1.832072
  7265.882  7265.900  0.500  1.641349  138.988  26.9246  1.773330
  7275.071  7275.090  0.500  1.633259  145.014  28.3202  1.886154
  7284.340  7284.360  0.500  1.626182  142.412  28.0094  1.881580
  7289.004  7289.020  0.500  1.622933  144.698  28.5518  1.923608