Folder: webxdiviewer/xdidata/Sr (part 2)

File: Sr-StrontiumSulfate.xdi
# XDI/1.0 BlueSky/1.10.0 BMM/2023-1.0-py310-tiled
# Beamline.name: BMM (06BM) -- Beamline for Materials Measurement (NIST)
# Beamline.xray_source: NSLS-II three-pole wiggler
# Beamline.collimation: paraboloid mirror, 5 nm Rh on 30 nm Pt
# Beamline.focusing: not in use
# Beamline.harmonic_rejection: flat mirror, Pt stripe, pitch = 7.0 mrad relative to beam
# Beamline.software: Bluesky 1.10.0, Ophyd 1.7.0, DataBroker 2.0.0b13, Python 3.10.8, 2023-1.0-py310-tiled
# Detector.I0: 10 cm N2
# Detector.I1: 25 cm N2
# Detector.I2: 25 cm N2
# Element.symbol: Sr
# Element.edge: K
# Element.reference: Sr
# Element.reference_material: SrTiO3
# Facility.name: NSLS-II
# Facility.energy: 3.0
# Facility.current: 399.8
# Facility.mode: top-off
# Facility.GUP: 301027
# Facility.SAF: 310583
# Facility.cycle: 2023-2
# Mono.name: Si(111)
# Mono.d_spacing: 3.13519
# Mono.encoder_resolution: 0.0000050 deg/ct
# Mono.angle_offset: 16.0754 deg
# Mono.scan_mode: pseudo channel cut
# Mono.scan_type: step
# Mono.direction: forward in energy
# Sample.name: SrSO4
# Sample.prep: Powder in PEG pellet
# Sample.x: 142.033 mm
# Sample.y: 113.475 mm
# Sample.SDD_position: 205.000 mm
# Scan.experimenters: Bruce Ravel
# Scan.edge_energy: 16104.6
# Scan.start_time: 2023-06-01T11:01:10
# Scan.end_time: 2023-06-01T11:07:51
# Scan.transient_id: 79103
# Scan.uid: 07367629-2d85-462d-846b-04482b5a18b1
# Scan.plot_hint: ln(I0/It)  --  ln($5/$6)
# Column.1: energy eV
# Column.2: requested_energy eV
# Column.3: measurement_time seconds
# Column.4: xmu
# Column.5: I0 nA
# Column.6: It nA
# Column.7: Ir nA
# ///////////
# Celestine; Yate; UK
# -----------
# energy  requested_energy  measurement_time  xmu  I0  It  Ir
  15904.537  15904.600  0.500  -0.214504  22.3114  27.6494  22.5797
  15934.692  15934.600  0.500  -0.216729  22.1601  27.523  22.4972
  15964.605  15964.600  0.500  -0.218716  22.0215  27.4052  22.422
  15994.586  15994.600  0.500  -0.220298  21.8724  27.2628  22.3274
  16024.569  16024.600  0.500  -0.221569  21.5685  26.9182  22.058
  16054.608  16054.600  0.500  -0.221199  21.5718  26.9124  22.0637
  16076.562  16076.600  0.500  -0.217430  21.4161  26.6177  21.82
  16082.552  16082.600  0.500  -0.214730  21.4351  26.5695  21.7708
  16088.525  16088.600  0.500  -0.210570  21.4025  26.4188  21.6314
  16094.558  16094.600  0.500  -0.202772  21.3667  26.1698  21.4044
  16096.045  16096.100  0.500  -0.199957  21.3593  26.0872  21.3243
  16097.543  16097.600  0.500  -0.196462  21.3557  25.9917  21.2305
  16099.064  16099.100  0.500  -0.192243  21.3394  25.8626  21.1111
  16100.563  16100.600  0.500  -0.187066  21.3182  25.7035  20.9613
  16102.084  16102.100  0.500  -0.180274  21.3128  25.5231  20.7823
  16103.583  16103.600  0.500  -0.171185  21.3141  25.2936  20.558
  16105.060  16105.100  0.500  -0.158519  21.3156  24.977  20.2449
  16106.571  16106.600  0.500  -0.139945  21.304  24.5041  19.766
  16108.049  16108.100  0.500  -0.109691  21.296  23.7649  19.0184
  16109.583  16109.600  0.500  -0.058383  21.2863  22.566  17.83
  16111.083  16111.100  0.500  0.027555  21.279  20.7006  16.047
  16112.584  16112.600  0.500  0.168095  21.2757  17.9838  13.5441
  16114.086  16114.100  0.500  0.378635  21.2671  14.5636  10.5343
  16115.598  16115.600  0.500  0.629195  21.2666  11.3356  7.850132
  16117.100  16117.100  0.500  0.860929  21.254  8.985544  5.934113
  16118.591  16118.600  0.500  0.986461  21.2461  7.922536  4.984968
  16120.104  16120.100  0.500  0.952017  21.2362  8.196381  5.098802
  16121.607  16121.600  0.500  0.829401  21.2158  9.256668  5.931933
  16123.110  16123.100  0.500  0.704146  21.1742  10.4713  6.987470
  16124.601  16124.600  0.500  0.614841  21.1541  11.4386  7.895118
  16126.093  16126.100  0.500  0.569039  21.1846  11.992  8.449916
  16127.586  16127.600  0.500  0.552054  21.1919  12.2015  8.677179
  16129.101  16129.100  0.500  0.544974  21.1895  12.2869  8.738221
  16131.563  16131.590  0.500  0.529914  21.1655  12.4592  8.773371
  16134.732  16134.720  0.500  0.524785  21.1557  12.5174  8.806691
  16138.062  16138.020  0.500  0.539569  21.2316  12.378  8.743201
  16141.497  16141.490  0.500  0.574681  21.2106  11.9391  8.393227
  16145.104  16145.130  0.500  0.581924  21.1682  11.8293  8.201907
  16148.941  16148.940  0.500  0.580312  21.1734  11.8513  8.090721
  16152.963  16152.930  0.500  0.607842  21.1522  11.5179  7.845699
  16157.101  16157.090  0.500  0.636959  21.1331  11.1773  7.764481
  16161.413  16161.410  0.500  0.618706  21.1144  11.3731  7.889913
  16165.911  16165.910  0.500  0.583465  21.0901  11.7674  8.064875
  16170.606  16170.580  0.500  0.576694  21.0623  11.8318  8.221934
  16175.441  16175.430  0.500  0.563680  20.9922  11.9469  8.414047
  16180.462  16180.440  0.500  0.558811  21.0184  12.0202  8.495465
  16185.647  16185.630  0.500  0.551232  20.9906  12.0956  8.534217
  16190.985  16190.980  0.500  0.547908  20.9613  12.1189  8.441997
  16196.511  16196.510  0.500  0.555748  20.933  12.0081  8.319110
  16202.224  16202.210  0.500  0.573512  20.9077  11.7824  8.148724
  16208.056  16208.080  0.500  0.585525  20.8758  11.6239  8.061459
  16214.157  16214.120  0.500  0.575039  20.8469  11.7302  8.210052
  16220.367  16220.340  0.500  0.554310  20.8151  11.9576  8.405634
  16226.708  16226.720  0.500  0.542247  20.7871  12.0865  8.525073
  16233.320  16233.280  0.500  0.541296  20.7491  12.0759  8.517284
  16240.006  16240.010  0.500  0.539323  20.7122  12.0782  8.493775
  16246.930  16246.910  0.500  0.540298  20.6852  12.0507  8.433054
  16253.975  16253.980  0.500  0.541095  20.6262  12.0068  8.383198
  16261.234  16261.220  0.500  0.543691  20.6132  11.9681  8.389220
  16268.651  16268.640  0.500  0.544281  20.5766  11.9397  8.414397
  16276.261  16276.220  0.500  0.542671  20.5406  11.9381  8.417698
  16283.970  16283.980  0.500  0.542132  20.5023  11.9222  8.393462
  16291.943  16291.910  0.500  0.534738  20.4573  11.9843  8.432900
  16300.017  16300.010  0.500  0.532401  20.4243  11.993  8.458044
  16308.308  16308.280  0.500  0.534265  20.368  11.9377  8.405311
  16316.702  16316.720  0.500  0.532018  20.3506  11.9543  8.418159
  16325.372  16325.340  0.500  0.529525  20.3082  11.9592  8.421593
  16334.122  16334.120  0.500  0.527653  20.274  11.9614  8.452370
  16343.104  16343.080  0.500  0.526474  20.2212  11.9443  8.454827
  16352.248  16352.210  0.500  0.525298  20.1914  11.9408  8.439569
  16361.496  16361.510  0.500  0.523136  20.1462  11.9398  8.438634
  16371.013  16370.980  0.500  0.521367  20.069  11.9151  8.418425
  16380.635  16380.620  0.500  0.518689  20.0582  11.9406  8.453651
  16390.457  16390.440  0.500  0.516020  20.0144  11.9464  8.464894
  16400.456  16400.420  0.500  0.514948  19.9584  11.9258  8.456860
  16410.609  16410.580  0.500  0.512202  19.9157  11.933  8.477169
  16420.963  16420.910  0.500  0.509632  19.856  11.9278  8.472198
  16431.461  16431.410  0.500  0.508658  19.8217  11.9189  8.455804
  16442.114  16442.080  0.500  0.507374  19.7449  11.8879  8.433232
  16452.959  16452.920  0.500  0.505559  19.7188  11.8938  8.457881
  16463.973  16463.940  0.500  0.504231  19.6669  11.8782  8.456474
  16475.145  16475.120  0.500  0.501946  19.615  11.8739  8.457173
  16486.522  16486.480  0.500  0.499187  19.5605  11.8737  8.458619
  16498.023  16498.010  0.500  0.496565  19.5049  11.871  8.463939
  16509.731  16509.710  0.500  0.494990  19.4493  11.8558  8.455835
  16521.623  16521.580  0.500  0.493170  19.3922  11.8426  8.450049
  16533.664  16533.630  0.500  0.491366  19.3285  11.825  8.444297
  16545.830  16545.840  0.500  0.489199  19.2622  11.81  8.443370
  16558.267  16558.230  0.500  0.486666  19.2174  11.8124  8.455267
  16570.843  16570.780  0.500  0.484174  19.1591  11.8059  8.452424
  16583.499  16583.510  0.500  0.482031  19.1588  11.8311  8.475093
  16596.428  16596.410  0.500  0.479810  19.1008  11.8215  8.472650
  16609.534  16609.490  0.500  0.477536  19.0408  11.8112  8.473371
  16622.746  16622.730  0.500  0.474967  18.9769  11.8019  8.474306
  16636.148  16636.140  0.500  0.472485  18.9118  11.7905  8.470267
  16649.767  16649.730  0.500  0.470221  18.8456  11.776  8.467749
  16663.542  16663.490  0.500  0.467716  18.7764  11.7621  8.464588
  16677.450  16677.420  0.500  0.465306  18.7057  11.7461  8.457062
  16691.565  16691.520  0.500  0.462810  18.6211  11.7222  8.447024
  16705.862  16705.790  0.500  0.460149  18.4859  11.6681  8.414685
  16720.319  16720.230  0.500  0.457998  17.8424  11.2862  8.144151
  16734.924  16734.850  0.500  0.455286  18.5191  11.7461  8.485268
  16749.776  16749.630  0.500  0.452704  18.4285  11.7188  8.471903
  16764.605  16764.590  0.500  0.450268  18.3441  11.6936  8.463116
  16779.745  16779.720  0.500  0.447253  18.2602  11.6753  8.453700
  16795.060  16795.020  0.500  0.444819  18.1763  11.6499  8.442506
  16810.528  16810.500  0.500  0.442259  18.0972  11.629  8.433456
  16826.160  16826.140  0.500  0.439721  17.934  11.5534  8.386067
  16841.959  16841.950  0.500  0.436939  18.0255  11.6447  8.460511
  16857.975  16857.940  0.500  0.434193  17.943  11.6232  8.453196
  16874.108  16874.100  0.500  0.431340  17.8329  11.5849  8.428442
  16890.448  16890.430  0.500  0.428938  17.7744  11.5747  8.428805
  16906.982  16906.930  0.500  0.426040  17.6825  11.5483  8.416539
  16923.625  16923.600  0.500  0.423443  17.3937  11.3892  8.308596
  16940.464  16940.450  0.500  0.420829  17.4444  11.4523  8.363062
  16957.475  16957.460  0.500  0.418048  17.5177  11.5324  8.429539