Folder: webxdiviewer/xdidata/Sr

Note: xdidata/README.md
# bmm-standards
A pretty webpage for BMM's collection of common XAFS materials

[BMM's common materials collection](./BMM-standards.html)

Plotting of the data will happen soon.

Periodic table adapted from [some guy named Daniel](https://codepen.io/gooseofmusic/pen/PjKdNQ)

[This](https://www.coderstool.com/scss-to-css) is a helpful tool for
dealing with Sassy CSS.

File: Sr-K-SrCe2Ti4O12.xdi
# XDI/1.0 BlueSky/1.10.0 BMM/2023-1.0-py310-tiled
# Beamline.name: BMM (06BM) -- Beamline for Materials Measurement (NIST)
# Beamline.xray_source: NSLS-II three-pole wiggler
# Beamline.collimation: paraboloid mirror, 5 nm Rh on 30 nm Pt
# Beamline.focusing: not in use
# Beamline.harmonic_rejection: flat mirror, Pt stripe, pitch = 7.0 mrad relative to beam
# Beamline.software: Bluesky 1.10.0, Ophyd 1.7.0, DataBroker 2.0.0b13, Python 3.10.8, 2023-1.0-py310-tiled
# Detector.I0: 10 cm N2
# Detector.I1: 25 cm N2
# Detector.I2: 25 cm N2
# Element.symbol: Sr
# Element.edge: K
# Element.reference: Sr
# Element.reference_material: SrTiO3
# Facility.name: NSLS-II
# Facility.energy: 3.0
# Facility.current: 399.4
# Facility.mode: top-off
# Facility.GUP: 301027
# Facility.SAF: 310583
# Facility.cycle: 2023-2
# Mono.name: Si(111)
# Mono.d_spacing: 3.13519
# Mono.encoder_resolution: 0.0000050 deg/ct
# Mono.angle_offset: 16.0754 deg
# Mono.scan_mode: pseudo channel cut
# Mono.scan_type: step
# Mono.direction: forward in energy
# Sample.name: SrCe2Ti4O12
# Sample.prep: Powder in PEG pellet
# Sample.x: 145.711 mm
# Sample.y: 114.376 mm
# Sample.SDD_position: 205.000 mm
# Scan.experimenters: Bruce Ravel
# Scan.edge_energy: 16104.6
# Scan.start_time: 2023-06-27T13:59:49
# Scan.end_time: 2023-06-27T14:06:28
# Scan.transient_id: 85139
# Scan.uid: ebefdba6-0575-4e3d-9217-dc587bf6cc1d
# Scan.plot_hint: ln(I0/It)  --  ln($5/$6)
# Column.1: energy eV
# Column.2: requested_energy eV
# Column.3: measurement_time seconds
# Column.4: xmu
# Column.5: I0 nA
# Column.6: It nA
# Column.7: Ir nA
# ///////////
# sample courtesy Martin Stennett, University of Sheffield
# -----------
# energy  requested_energy  measurement_time  xmu  I0  It  Ir
  15904.571  15904.600  0.500  -0.301082  22.6522  30.6104  25.2013
  15934.603  15934.600  0.500  -0.302757  22.5371  30.5059  25.1417
  15964.616  15964.600  0.500  -0.304734  22.4441  30.4401  25.1088
  15994.631  15994.600  0.500  -0.306470  22.3204  30.3249  25.0319
  16024.603  16024.600  0.500  -0.308065  22.02  29.9646  24.7562
  16054.608  16054.600  0.500  -0.309768  22.0159  30.0101  24.8035
  16076.562  16076.600  0.500  -0.310726  21.8548  29.8191  24.6395
  16082.575  16082.600  0.500  -0.310848  21.8788  29.8555  24.6601
  16088.559  16088.600  0.500  -0.310769  21.8517  29.8161  24.6106
  16094.558  16094.600  0.500  -0.310616  21.8251  29.7752  24.5464
  16095.432  16095.500  0.500  -0.310613  21.8106  29.7554  24.5186
  16096.351  16096.400  0.500  -0.310624  21.801  29.7426  24.5013
  16097.248  16097.300  0.500  -0.310335  21.8033  29.7372  24.4914
  16098.179  16098.200  0.500  -0.310295  21.7935  29.7226  24.465
  16099.064  16099.100  0.500  -0.309993  21.783  29.6992  24.4351
  16099.995  16100.000  0.500  -0.309861  21.7693  29.6767  24.4048
  16100.858  16100.900  0.500  -0.309729  21.7594  29.6592  24.3738
  16101.812  16101.800  0.500  -0.309253  21.7632  29.6503  24.3468
  16102.686  16102.700  0.500  -0.309033  21.7649  29.6462  24.3181
  16103.583  16103.600  0.500  -0.308558  21.762  29.6281  24.2748
  16104.469  16104.500  0.500  -0.307938  21.7608  29.6081  24.2231
  16105.390  16105.400  0.500  -0.307343  21.7513  29.5776  24.1427
  16106.276  16106.300  0.500  -0.306172  21.7435  29.5323  24.0472
  16107.162  16107.200  0.500  -0.304508  21.7478  29.4891  23.917
  16108.083  16108.100  0.500  -0.302041  21.7426  29.4094  23.7218
  16108.958  16109.000  0.500  -0.299126  21.7318  29.3093  23.4758
  16109.901  16109.900  0.500  -0.295191  21.7259  29.1862  23.1579
  16110.765  16110.800  0.500  -0.290666  21.7218  29.049  22.7889
  16111.686  16111.700  0.500  -0.284834  21.7087  28.8626  22.2921
  16112.607  16112.600  0.500  -0.278159  21.7095  28.6716  21.7021
  16113.494  16113.500  0.500  -0.269663  21.7054  28.4237  20.9959
  16114.404  16114.400  0.500  -0.259211  21.7083  28.1319  20.2481
  16115.291  16115.300  0.500  -0.246922  21.6927  27.7684  19.4953
  16116.201  16116.200  0.500  -0.232481  21.6896  27.3663  18.7179
  16117.089  16117.100  0.500  -0.218615  21.6848  26.9835  17.9558
  16118.022  16118.000  0.500  -0.207240  21.6816  26.6744  17.2356
  16118.909  16118.900  0.500  -0.202041  21.6802  26.5343  16.7892
  16119.797  16119.800  0.500  -0.203281  21.6714  26.5565  16.7099
  16120.708  16120.700  0.500  -0.209844  21.6504  26.7054  16.972
  16121.595  16121.600  0.500  -0.218409  21.6366  26.918  17.4469
  16122.495  16122.500  0.500  -0.227784  21.6192  27.1497  18.0264
  16123.394  16123.400  0.500  -0.236369  21.5904  27.3473  18.5888
  16124.271  16124.300  0.500  -0.243697  21.572  27.525  19.098
  16125.182  16125.200  0.500  -0.249466  21.5901  27.7074  19.5358
  16126.059  16126.100  0.500  -0.253650  21.6083  27.8471  19.8448
  16126.993  16127.000  0.500  -0.256030  21.6328  27.9451  20.0576
  16127.871  16127.900  0.500  -0.256906  21.6286  27.9641  20.1314
  16128.782  16128.800  0.500  -0.256340  21.6316  27.9522  20.1197
  16129.603  16129.600  0.500  -0.255019  21.6101  27.8875  20.031
  16132.657  16132.610  0.500  -0.249933  21.5947  27.7263  19.7016
  16135.838  16135.800  0.500  -0.250583  21.5815  27.7274  19.7737
  16139.192  16139.160  0.500  -0.252678  21.5626  27.7612  19.8326
  16142.684  16142.680  0.500  -0.251785  21.5362  27.7025  19.6154
  16146.383  16146.380  0.500  -0.249560  21.4952  27.5883  19.2674
  16150.289  16150.250  0.500  -0.245331  21.5055  27.4849  18.9114
  16154.335  16154.300  0.500  -0.243905  21.4885  27.4242  19.0288
  16158.531  16158.510  0.500  -0.248008  21.4651  27.5069  19.3884
  16162.912  16162.890  0.500  -0.247988  21.4381  27.4718  19.1858
  16167.479  16167.450  0.500  -0.245061  21.4216  27.3704  19.0248
  16172.152  16172.180  0.500  -0.248498  21.4001  27.437  19.4054
  16177.091  16177.080  0.500  -0.254967  21.3643  27.5689  19.6668
  16182.183  16182.150  0.500  -0.257386  21.3509  27.6183  19.7615
  16187.392  16187.390  0.500  -0.255938  21.3963  27.637  19.6467
  16192.800  16192.810  0.500  -0.252635  21.3699  27.5119  19.338
  16198.418  16198.390  0.500  -0.250439  21.339  27.4119  19.2123
  16204.156  16204.150  0.500  -0.251015  21.3142  27.3958  19.157
  16210.081  16210.080  0.500  -0.252655  21.2861  27.4046  19.2968
  16216.207  16216.180  0.500  -0.253884  21.2535  27.3962  19.4325
  16222.418  16222.450  0.500  -0.256060  21.2303  27.4259  19.5246
  16228.923  16228.890  0.500  -0.258251  21.1946  27.4399  19.5932
  16235.513  16235.500  0.500  -0.258943  21.1208  27.3633  19.5024
  16242.306  16242.290  0.500  -0.258157  21.1328  27.3573  19.4364
  16249.277  16249.250  0.500  -0.256423  21.1032  27.2716  19.2842
  16256.371  16256.370  0.500  -0.256492  21.0368  27.1877  19.2115
  16263.714  16263.670  0.500  -0.258526  21.0286  27.2324  19.3408
  16271.144  16271.150  0.500  -0.259712  21.0007  27.2286  19.4219
  16278.826  16278.790  0.500  -0.260512  20.961  27.1988  19.3947
  16286.596  16286.600  0.500  -0.261067  20.9248  27.167  19.3361
  16294.618  16294.590  0.500  -0.260939  20.8878  27.1154  19.3178
  16302.764  16302.750  0.500  -0.260569  20.8419  27.0459  19.2836
  16311.082  16311.070  0.500  -0.260902  20.8094  27.0127  19.2358
  16319.595  16319.570  0.500  -0.262337  20.7707  27.0012  19.2268
  16328.280  16328.250  0.500  -0.263405  20.7318  26.9794  19.2316
  16337.115  16337.090  0.500  -0.264487  20.6937  26.959  19.2864
  16346.100  16346.100  0.500  -0.265143  20.6493  26.9188  19.2644
  16355.306  16355.290  0.500  -0.264856  20.5985  26.8449  19.1859
  16364.687  16364.650  0.500  -0.265097  20.5592  26.8  19.1452
  16374.172  16374.170  0.500  -0.265794  20.4254  26.6442  19.0458
  16383.892  16383.870  0.500  -0.266934  20.4694  26.7321  19.1469
  16393.754  16393.750  0.500  -0.267710  20.4334  26.7057  19.1417
  16403.839  16403.790  0.500  -0.268698  20.349  26.6218  19.099
  16414.008  16414.000  0.500  -0.269459  20.3303  26.6176  19.1199
  16424.437  16424.390  0.500  -0.269707  20.2817  26.5605  19.0718
  16434.987  16434.950  0.500  -0.270260  20.2318  26.5098  19.0047
  16445.656  16445.680  0.500  -0.270887  20.1452  26.4129  18.9628
  16456.637  16456.580  0.500  -0.271685  20.1336  26.4188  19.0047
  16467.691  16467.650  0.500  -0.272423  20.0932  26.3852  18.9947
  16478.928  16478.890  0.500  -0.273404  20.041  26.3425  18.9709
  16490.334  16490.310  0.500  -0.274178  19.9848  26.289  18.9376
  16501.923  16501.890  0.500  -0.274815  19.9336  26.2384  18.9131
  16513.637  16513.650  0.500  -0.275450  19.8783  26.1822  18.8749
  16525.642  16525.580  0.500  -0.276209  19.8209  26.1264  18.8515
  16537.701  16537.680  0.500  -0.276964  19.7729  26.0828  18.8355
  16549.970  16549.950  0.500  -0.277762  19.7051  26.0142  18.8067
  16562.437  16562.390  0.500  -0.278684  19.6547  25.9715  18.7899
  16575.044  16575.010  0.500  -0.279634  19.6043  25.9295  18.7638
  16587.839  16587.790  0.500  -0.280406  19.5497  25.8773  18.7373
  16600.774  16600.750  0.500  -0.280961  19.4906  25.8134  18.707
  16613.948  16613.880  0.500  -0.281878  19.4284  25.7546  18.681
  16627.227  16627.180  0.500  -0.282802  19.3683  25.6986  18.65
  16640.758  16640.650  0.500  -0.283724  19.3098  25.6446  18.6247
  16654.458  16654.300  0.500  -0.284474  19.2514  25.5864  18.5984
  16668.180  16668.110  0.500  -0.285407  19.175  25.5085  18.5592
  16682.181  16682.100  0.500  -0.286263  19.1093  25.443  18.5179
  16696.254  16696.260  0.500  -0.287151  19.027  25.3559  18.47
  16710.634  16710.590  0.500  -0.287925  18.8393  25.1252  18.3175
  16725.087  16725.090  0.500  -0.288897  18.9868  25.3465  18.4904
  16739.798  16739.760  0.500  -0.289746  18.9063  25.2604  18.4476
  16744.712  16744.690  0.500  -0.290105  18.8775  25.231  18.4284

File: Sr-StrontiumHydroxide.xdi
# XDI/1.0 BlueSky/1.10.0 BMM/2023-1.0-py310-tiled
# Beamline.name: BMM (06BM) -- Beamline for Materials Measurement (NIST)
# Beamline.xray_source: NSLS-II three-pole wiggler
# Beamline.collimation: paraboloid mirror, 5 nm Rh on 30 nm Pt
# Beamline.focusing: not in use
# Beamline.harmonic_rejection: flat mirror, Pt stripe, pitch = 7.0 mrad relative to beam
# Beamline.software: Bluesky 1.10.0, Ophyd 1.7.0, DataBroker 2.0.0b13, Python 3.10.8, 2023-1.0-py310-tiled
# Detector.I0: 10 cm N2
# Detector.I1: 25 cm N2
# Detector.I2: 25 cm N2
# Element.symbol: Sr
# Element.edge: K
# Element.reference: Sr
# Element.reference_material: SrTiO3
# Facility.name: NSLS-II
# Facility.energy: 3.0
# Facility.current: 400.6
# Facility.mode: top-off
# Facility.GUP: 301027
# Facility.SAF: 310583
# Facility.cycle: 2023-2
# Mono.name: Si(111)
# Mono.d_spacing: 3.13519
# Mono.encoder_resolution: 0.0000050 deg/ct
# Mono.angle_offset: 16.0754 deg
# Mono.scan_mode: pseudo channel cut
# Mono.scan_type: step
# Mono.direction: forward in energy
# Sample.name: Sr(OH)2.8H2O
# Sample.prep: Powder in PEG pellet
# Sample.x: 142.033 mm
# Sample.y: 113.475 mm
# Sample.SDD_position: 205.000 mm
# Scan.experimenters: Bruce Ravel
# Scan.edge_energy: 16104.6
# Scan.start_time: 2023-06-01T11:15:59
# Scan.end_time: 2023-06-01T11:23:18
# Scan.transient_id: 79113
# Scan.uid: 890eabcf-edfb-48fc-87f2-88892370da46
# Scan.plot_hint: ln(I0/It)  --  ln($5/$6)
# Column.1: energy eV
# Column.2: requested_energy eV
# Column.3: measurement_time seconds
# Column.4: xmu
# Column.5: I0 nA
# Column.6: It nA
# Column.7: Ir nA
# ///////////
# Sigma Aldrich; 95%; 415219; Lot STBG0528V
# -----------
# energy  requested_energy  measurement_time  xmu  I0  It  Ir
  15904.537  15904.600  0.500  -0.224343  22.3718  27.9983  22.8618
  15934.636  15934.600  0.500  -0.226368  22.2396  27.8893  22.7972
  15964.739  15964.600  0.500  -0.228255  22.0864  27.7495  22.7034
  15994.709  15994.600  0.500  -0.229709  21.9466  27.6139  22.6103
  16024.591  16024.600  0.500  -0.230514  21.6402  27.2503  22.3328
  16054.608  16054.600  0.500  -0.229048  21.6404  27.2107  22.3102
  16076.562  16076.600  0.500  -0.223503  21.4819  26.862  22.0187
  16082.530  16082.600  0.500  -0.220032  21.5058  26.7987  21.9584
  16088.570  16088.600  0.500  -0.214053  21.4787  26.6054  21.7868
  16094.536  16094.600  0.500  -0.203665  21.4422  26.2857  21.495
  16096.011  16096.100  0.500  -0.199664  21.4382  26.1759  21.3971
  16097.543  16097.600  0.500  -0.194690  21.4299  26.0359  21.2682
  16099.041  16099.100  0.500  -0.188887  21.4108  25.8623  21.1108
  16100.563  16100.600  0.500  -0.181534  21.3922  25.6504  20.9138
  16102.084  16102.100  0.500  -0.171791  21.3871  25.3956  20.6807
  16103.583  16103.600  0.500  -0.158563  21.3959  25.0723  20.3775
  16105.060  16105.100  0.500  -0.139718  21.3948  24.6029  19.9466
  16106.571  16106.600  0.500  -0.109308  21.3856  23.8558  19.2518
  16108.049  16108.100  0.500  -0.057623  21.3717  22.6393  18.1314
  16109.572  16109.600  0.500  0.037913  21.3676  20.5727  16.2763
  16111.106  16111.100  0.500  0.198250  21.3619  17.5203  13.6127
  16112.596  16112.600  0.500  0.411296  21.3567  14.155  10.6972
  16114.086  16114.100  0.500  0.645759  21.3501  11.1931  8.112111
  16115.587  16115.600  0.500  0.870522  21.3416  8.936437  6.209905
  16117.055  16117.100  0.500  1.136013  21.3384  6.851696  4.565988
  16118.602  16118.600  0.500  1.411561  21.3294  5.199297  3.298144
  16120.082  16120.100  0.500  1.533055  21.3196  4.602380  2.866380
  16121.595  16121.600  0.500  1.503346  21.2992  4.736622  3.030329
  16123.087  16123.100  0.500  1.395555  21.2557  5.264937  3.510563
  16124.613  16124.600  0.500  1.255104  21.2354  6.053056  4.179129
  16126.093  16126.100  0.500  1.111095  21.2627  6.999633  4.934992
  16127.574  16127.600  0.500  0.984004  21.2766  7.953441  5.659903
  16129.067  16129.100  0.500  0.902132  21.2685  8.628704  6.142989
  16131.597  16131.590  0.500  0.855542  21.2502  9.032477  6.367080
  16134.709  16134.720  0.500  0.832045  21.2391  9.242385  6.509025
  16137.983  16138.020  0.500  0.825761  21.2216  9.292978  6.572324
  16141.463  16141.490  0.500  0.868704  21.1998  8.893199  6.263145
  16145.127  16145.130  0.500  0.916714  21.1513  8.456923  5.872534
  16149.078  16148.940  0.500  0.971175  21.1526  8.009170  5.474212
  16152.929  16152.930  0.500  1.036553  21.1899  7.515513  5.123628
  16157.033  16157.090  0.500  1.060711  21.1731  7.330311  5.095532
  16161.402  16161.410  0.500  1.039363  21.1515  7.480865  5.199300
  16165.877  16165.910  0.500  0.998547  21.1288  7.784174  5.342119
  16170.560  16170.580  0.500  0.945513  21.1004  8.197085  5.699735
  16175.383  16175.430  0.500  0.910437  21.0251  8.459418  5.960544
  16180.428  16180.440  0.500  0.888447  21.0516  8.658396  6.126440
  16185.624  16185.630  0.500  0.898976  21.0277  8.558000  6.046691
  16191.008  16190.980  0.500  0.924377  20.9992  8.332011  5.813684
  16196.488  16196.510  0.500  0.935219  20.9702  8.230810  5.708165
  16202.212  16202.210  0.500  0.938394  20.9439  8.194433  5.674459
  16208.079  16208.080  0.500  0.942663  20.9213  8.150695  5.659301
  16214.134  16214.120  0.500  0.945762  20.8885  8.112764  5.683849
  16220.321  16220.340  0.500  0.934368  20.8629  8.195655  5.770481
  16226.743  16226.720  0.500  0.912284  20.837  8.368270  5.909503
  16233.297  16233.280  0.500  0.893104  20.8081  8.518488  6.016609
  16240.006  16240.010  0.500  0.887766  20.7771  8.551325  6.021397
  16246.907  16246.910  0.500  0.888282  20.7487  8.535208  5.980107
  16253.986  16253.980  0.500  0.892241  20.6982  8.480795  5.929606
  16261.223  16261.220  0.500  0.899632  20.6874  8.413948  5.901928
  16268.628  16268.640  0.500  0.898906  20.6567  8.407597  5.930073
  16276.226  16276.220  0.500  0.893893  20.6196  8.434637  5.955990
  16283.959  16283.980  0.500  0.900500  20.5857  8.365340  5.895988
  16291.920  16291.910  0.500  0.898518  20.5499  8.367360  5.893341
  16299.970  16300.010  0.500  0.890920  20.5063  8.413301  5.939375
  16308.273  16308.280  0.500  0.882278  20.4462  8.461444  5.961623
  16316.725  16316.720  0.500  0.875883  20.427  8.507741  5.996672
  16325.349  16325.340  0.500  0.871935  20.3837  8.523268  6.008043
  16334.111  16334.120  0.500  0.875355  20.3468  8.478810  5.996525
  16343.081  16343.080  0.500  0.880344  20.2935  8.414500  5.962942
  16352.213  16352.210  0.500  0.877412  20.2539  8.422750  5.960170
  16361.555  16361.510  0.500  0.870951  20.2098  8.458885  5.983586
  16370.978  16370.980  0.500  0.865764  20.1301  8.469357  5.989327
  16380.647  16380.620  0.500  0.863323  20.1151  8.483693  6.011396
  16390.434  16390.440  0.500  0.861481  20.0673  8.479156  6.014758
  16400.468  16400.420  0.500  0.856947  20.0099  8.493306  6.029311
  16410.585  16410.580  0.500  0.852301  19.9689  8.515374  6.053328
  16420.916  16420.910  0.500  0.849441  19.9005  8.510516  6.049765
  16431.437  16431.410  0.500  0.849880  19.8658  8.491974  6.030320
  16442.079  16442.080  0.500  0.849200  19.7879  8.464417  6.011212
  16452.947  16452.920  0.500  0.846130  19.758  8.477623  6.035550
  16463.961  16463.940  0.500  0.841984  19.7031  8.489161  6.047131
  16475.157  16475.120  0.500  0.838649  19.7198  8.524765  6.075665
  16486.510  16486.480  0.500  0.835704  19.6622  8.524935  6.081115
  16498.023  16498.010  0.500  0.832598  19.6066  8.527240  6.084276
  16509.731  16509.710  0.500  0.830177  19.5485  8.522599  6.083340
  16521.599  16521.580  0.500  0.827655  19.4919  8.519367  6.085715
  16533.640  16533.630  0.500  0.824069  19.4228  8.519678  6.088666
  16545.842  16545.840  0.500  0.821353  19.358  8.514353  6.093546
  16558.255  16558.230  0.500  0.817842  19.3113  8.523663  6.104723
  16570.795  16570.780  0.500  0.814596  19.2471  8.522958  6.108350
  16583.511  16583.510  0.500  0.811343  19.1829  8.522219  6.109737
  16596.440  16596.410  0.500  0.808397  19.1233  8.520820  6.113162
  16609.546  16609.490  0.500  0.804489  19.0569  8.524455  6.121188
  16622.746  16622.730  0.500  0.801216  18.9968  8.525427  6.126741
  16636.136  16636.140  0.500  0.797619  18.9271  8.524778  6.128950
  16649.767  16649.730  0.500  0.794230  18.8596  8.523201  6.133357
  16663.494  16663.490  0.500  0.790904  18.7945  8.522087  6.136914
  16677.450  16677.420  0.500  0.787371  18.717  8.516989  6.138566
  16691.516  16691.520  0.500  0.783781  18.633  8.509236  6.137331
  16705.801  16705.790  0.500  0.780007  18.4953  8.478274  6.118939
  16720.319  16720.230  0.500  0.777703  17.8259  8.190281  5.916800
  16734.900  16734.850  0.500  0.773300  18.5299  8.551335  6.183806
  16749.653  16749.630  0.500  0.769367  18.4268  8.537233  6.177046
  16764.605  16764.590  0.500  0.765661  18.3453  8.531067  6.178652
  16779.732  16779.720  0.500  0.762020  18.2652  8.524781  6.178571
  16795.073  16795.020  0.500  0.758451  18.1768  8.513847  6.176007
  16810.540  16810.500  0.500  0.754473  18.0961  8.509833  6.176731
  16826.173  16826.140  0.500  0.750902  17.9407  8.466933  6.150988
  16841.971  16841.950  0.500  0.747152  18.0169  8.534842  6.204619
  16857.962  16857.940  0.500  0.743481  17.9439  8.531556  6.209698
  16874.121  16874.100  0.500  0.739949  17.8319  8.508282  6.199035
  16890.460  16890.430  0.500  0.735656  17.7673  8.513911  6.204069
  16906.970  16906.930  0.500  0.731818  17.6833  8.506277  6.205177
  16923.662  16923.600  0.500  0.728390  17.3935  8.395594  6.129387
  16940.464  16940.450  0.500  0.724329  17.446  8.455183  6.177956
  16957.475  16957.460  0.500  0.720590  17.506  8.516059  6.228292