Folder: webxdiviewer/xdidata/Ta (part 2)

File: Ta-L3-Ta.xdi
# XDI/1.0 BlueSky/1.5.3
# Beamline.name: 6BM
# Beamline.xray_source: NSLS-II three-pole wiggler
# Beamline.collimation: paraboloid mirror, 5 nm Rh on 30 nm Pt
# Beamline.focusing: not in use
# Beamline.harmonic_rejection: flat mirror, Pt stripe, pitch = 7.0 mrad relative to beam
# Detector.i0: 10 cm N2
# Detector.I1: 25 cm N2
# Detector.I2: 25 cm N2
# Element.symbol: Ta
# Element.edge: L3
# Facility.name: NSLS-II
# Facility.energy: 3.0
# Facility.current: 400.3
# Facility.mode: top-off
# Facility.GUP: 305832
# Facility.SAF: 305669
# Facility.cycle: 2020-1
# Mono.name: Si(111)
# Mono.d_spacing: 3.13532
# Mono.encoder_resolution: 0.0000050 deg/ct
# Mono.angle_offset: 16.0581 deg
# Mono.scan_mode: fixed exit
# Mono.scan_type: step
# Mono.direction: forward in energy
# Sample.name: Ta
# Sample.prep: X
# Sample.x_position: -7.603 mm
# Sample.y_position: 102.894 mm
# Scan.experimenters: Neil Hyatt, Martin Stennett, Dan Austin, Seb Lawson
# Scan.edge_energy: 9881.1
# Scan.start_time: 2020-03-07T06:14:15
# Scan.end_time: 2020-03-07T06:25:44
# Scan.transient_id: 23472
# Scan.uid: ed6ccb2b-2857-4f87-977c-896b4366f4f0
# Scan.plot_hint: ln(i0/itrans)  --  ln($5/$6)
# Column.1: energy eV
# Column.2: requested_energy eV
# Column.3: measurement_time seconds
# Column.4: mutrans
# Column.5: i0
# Column.6: itrans
# Column.7: irefer
# ///////////
#
# -----------
#  energy  requested_energy  measurement_time  mutrans  i0  itrans  irefer
9681.091  9681.100  1.000  0.490438  113.422  69.4549  16.9294
9711.168  9711.100  1.000  0.479819  112.519  69.6372  16.7676
9741.141  9741.100  1.000  0.469621  111.616  69.7868  16.1329
9771.122  9771.100  1.000  0.460009  110.606  69.8233  17.0228
9801.110  9801.100  1.000  0.451590  109.676  69.8215  16.789
9831.119  9831.100  1.000  0.448261  108.757  69.4669  17.1971
9853.086  9853.100  1.000  0.464609  108.006  67.869  16.6977
9859.084  9859.100  1.000  0.482585  107.796  66.5304  16.351
9865.081  9865.100  1.000  0.524361  107.606  63.6955  15.685
9871.081  9871.100  1.000  0.657178  107.42  55.6773  13.7951
9871.810  9871.850  1.000  0.692660  107.381  53.7165  13.329
9872.581  9872.600  1.000  0.738268  107.358  51.3106  12.7476
9873.336  9873.350  1.000  0.796165  107.333  48.4132  12.047
9874.095  9874.100  1.000  0.872795  107.333  44.8419  11.1767
9874.849  9874.850  1.000  0.978140  107.303  40.347  10.0777
9875.600  9875.600  1.000  1.122306  107.279  34.9222  8.740719
9876.355  9876.350  1.000  1.318761  107.232  28.6808  7.196654
9877.097  9877.100  1.000  1.570886  107.57  22.3597  5.624176
9877.848  9877.850  1.000  1.887771  107.434  16.2664  4.102986
9878.604  9878.600  1.000  2.265545  106.713  11.074  2.800758
9879.347  9879.350  1.000  2.692540  105.277  7.128193  1.808704
9880.102  9880.100  1.000  3.140016  104.953  4.542601  1.156141
9880.853  9880.850  1.000  3.504426  105.942  3.185041  0.811442
9881.605  9881.600  1.000  3.692953  106.929  2.662364  0.678559
9882.361  9882.350  1.000  3.670050  107.14  2.729422  0.693763
9883.104  9883.100  1.000  3.481171  107.182  3.298127  0.837836
9883.856  9883.850  1.000  3.213040  107.165  4.311675  1.093699
9884.608  9884.600  1.000  2.950353  107.139  5.605646  1.422609
9885.356  9885.350  1.000  2.729260  107.148  6.993255  1.777473
9886.100  9886.100  1.000  2.552587  107.112  8.341859  2.123056
9886.848  9886.850  1.000  2.411408  107.031  9.599483  2.445776
9887.588  9887.600  1.000  2.305735  107.016  10.6679  2.720900
9888.353  9888.350  1.000  2.226625  106.965  11.5407  2.947359
9889.102  9889.100  1.000  2.169192  106.904  12.2159  3.122485
9889.855  9889.850  1.000  2.123258  106.878  12.787  3.271443
9890.607  9890.600  1.000  2.083716  106.842  13.2983  3.403780
9891.352  9891.350  1.000  2.045801  106.821  13.8094  3.535181
9892.105  9892.100  1.000  2.007306  106.82  14.3512  3.677134
9892.854  9892.850  1.000  1.967033  106.776  14.935  3.829024
9893.599  9893.600  1.000  1.928147  106.724  15.5196  3.979504
9894.344  9894.350  1.000  1.891118  106.702  16.1017  4.129056
9895.090  9895.100  1.000  1.856304  106.648  16.6637  4.274168
9895.839  9895.850  1.000  1.825022  106.579  17.182  4.406921
9896.593  9896.600  1.000  1.797997  106.553  17.6484  4.527622
9897.351  9897.350  1.000  1.775990  106.583  18.0462  4.629922
9898.101  9898.100  1.000  1.757744  106.541  18.3712  4.712603
9898.855  9898.850  1.000  1.740880  106.46  18.6695  4.787738
9899.593  9899.600  1.000  1.724298  106.762  19.0355  4.881799
9900.351  9900.350  1.000  1.707318  106.71  19.352  4.960264
9901.093  9901.100  1.000  1.692173  106.661  19.6383  5.034212
9901.852  9901.850  1.000  1.679646  106.61  19.8763  5.092637
9902.586  9902.600  1.000  1.670640  106.572  20.0491  5.136098
9903.337  9903.350  1.000  1.664320  106.535  20.1692  5.167405
9904.083  9904.100  1.000  1.660257  106.463  20.2375  5.183911
9904.843  9904.850  1.000  1.657579  106.46  20.2912  5.193453
9905.602  9905.600  1.000  1.655011  106.4  20.3319  5.202293
9906.353  9906.350  1.000  1.651747  106.336  20.3863  5.215692
9907.105  9907.100  1.000  1.646829  106.352  20.4898  5.240181
9907.856  9907.850  1.000  1.641109  106.269  20.5913  5.263981
9908.595  9908.600  1.000  1.635571  106.241  20.7001  5.290982
9909.346  9909.350  1.000  1.630801  106.193  20.7898  5.313025
9910.090  9910.100  1.000  1.627726  106.156  20.8463  5.328380
9910.846  9910.850  1.000  1.626497  106.133  20.8676  5.333647
9913.310  9913.280  1.000  1.628009  106.072  20.8241  5.320514
9916.695  9916.680  1.000  1.616224  105.95  21.0466  5.378891
9920.277  9920.260  1.000  1.580211  105.77  21.7815  5.569475
9924.024  9924.010  1.000  1.577328  105.602  21.8097  5.583320
9927.936  9927.930  1.000  1.609137  105.376  21.0815  5.400130
9932.047  9932.030  1.000  1.631254  103.567  20.2664  5.191573
9936.307  9936.290  1.000  1.624220  105.14  20.7195  5.316776
9940.759  9940.730  1.000  1.612539  105.006  20.9363  5.383247
9945.348  9945.340  1.000  1.608402  104.784  20.9786  5.403994
9950.125  9950.110  1.000  1.621369  104.633  20.6784  5.341646
9955.086  9955.070  1.000  1.631184  103.958  20.3443  5.274436
9960.212  9960.190  1.000  1.607001  104.189  20.8886  5.440584
9965.485  9965.480  1.000  1.584270  103.965  21.323  5.585185
9970.952  9970.940  1.000  1.587919  102.899  21.0275  5.534818
9976.598  9976.580  1.000  1.590854  104.119  21.2143  5.602977
9982.410  9982.390  1.000  1.594610  103.239  20.9562  5.547606
9988.393  9988.370  1.000  1.605718  103.606  20.7985  5.518719
9994.531  9994.520  1.000  1.618502  103.178  20.4493  5.438975
10000.848  10000.840  1.000  1.626356  103.251  20.3038  5.406313
10007.331  10007.330  1.000  1.618999  102.894  20.3829  5.434700
10014.017  10014.000  1.000  1.588995  102.555  20.9346  5.591950
10020.842  10020.840  1.000  1.568935  102.366  21.3194  5.702857
10027.847  10027.840  1.000  1.566967  102.044  21.2942  5.707838
10035.027  10035.020  1.000  1.567251  101.485  21.1717  5.691863
10042.379  10042.370  1.000  1.569385  101.496  21.1287  5.700167
10049.899  10049.890  1.000  1.579965  101.208  20.847  5.650602
10057.611  10057.590  1.000  1.614516  100.914  20.0806  5.468725
10065.466  10065.450  1.000  1.616646  100.581  19.9718  5.462913
10073.500  10073.490  1.000  1.556783  100.283  21.1409  5.803534
10081.715  10081.700  1.000  1.538004  99.9956  21.48  5.918400
10090.098  10090.080  1.000  1.541551  97.5497  20.8804  5.777584
10098.636  10098.630  1.000  1.546097  99.2187  21.1413  5.866493
10107.370  10107.350  1.000  1.554913  98.938  20.8965  5.815305
10116.253  10116.240  1.000  1.556749  98.6089  20.7888  5.801224
10125.315  10125.310  1.000  1.564894  98.2436  20.5437  5.749215
10134.559  10134.550  1.000  1.559717  97.8042  20.558  5.770003
10143.967  10143.950  1.000  1.536897  97.5395  20.9756  5.909302
10153.544  10153.530  1.000  1.519279  97.1497  21.2631  6.016998
10163.301  10163.280  1.000  1.515513  96.7304  21.2512  6.040632
10173.221  10173.210  1.000  1.520397  96.3689  21.0687  6.013106
10183.317  10183.300  1.000  1.526782  96.0138  20.8574  5.978558
10193.582  10193.570  1.000  1.526380  95.2862  20.7077  5.957992
10204.017  10204.000  1.000  1.515353  95.1959  20.9174  6.042955
10214.632  10214.610  1.000  1.504200  94.7339  21.0494  6.104843
10225.406  10225.390  1.000  1.490827  94.6602  21.3162  6.205663
10236.361  10236.340  1.000  1.486479  94.2084  21.3069  6.224870
10247.486  10247.460  1.000  1.483721  93.7743  21.2673  6.237651
10258.777  10258.760  1.000  1.482651  93.342  21.1919  6.240218
10270.240  10270.220  1.000  1.478104  92.8692  21.1806  6.261396
10281.875  10281.860  1.000  1.475156  92.3873  21.1329  6.275029
10293.693  10293.670  1.000  1.466619  91.9565  21.2148  6.326596
10305.663  10305.650  1.000  1.455236  91.4803  21.3465  6.393152
10317.823  10317.800  1.000  1.445413  91.0253  21.45  6.452840
10330.132  10330.120  1.000  1.438276  90.5376  21.4879  6.491846
10342.647  10342.620  1.000  1.435931  90.0545  21.4234  6.499672
10355.310  10355.280  1.000  1.432068  89.5435  21.3843  6.515542
10368.148  10368.120  1.000  1.427358  89.0362  21.3635  6.534970
10381.145  10381.130  1.000  1.421241  88.5486  21.3769  6.565903
10394.335  10394.310  1.000  1.413720  88.0596  21.4193  6.607600
10407.685  10407.660  1.000  1.406375  87.5756  21.4586  6.650736
10421.202  10421.180  1.000  1.391072  87.048  21.6583  6.741662
10434.920  10434.880  1.000  1.381477  86.5709  21.7472  6.798971
10448.798  10448.740  1.000  1.378458  86.0242  21.6752  6.805905
10462.813  10462.780  1.000  1.378588  85.5294  21.5478  6.796522
10477.019  10476.990  1.000  1.373110  85.0144  21.5357  6.823143
10491.340  10491.370  1.000  1.362828  84.5057  21.628  6.881393
10506.022  10505.920  1.000  1.354805  83.8918  21.6439  6.917879
10520.684  10520.640  1.000  1.344492  83.3677  21.7316  6.975056
10535.522  10535.540  1.000  1.331938  82.8429  21.8677  7.049129
10550.692  10550.600  1.000  1.323664  82.2725  21.8975  7.093819
10565.926  10565.840  1.000  1.318862  81.7236  21.8561  7.113290
10581.312  10581.250  1.000  1.315580  81.1874  21.7841  7.118893
10596.806  10596.830  1.000  1.311354  80.6864  21.7413  7.139632
10612.567  10612.580  1.000  1.300528  80.3729  21.8926  7.220533
10623.161  10623.180  1.000  1.293399  80.0404  21.958  7.266107

File: Ta-L3-TantalumOxide.xdi
# XDI/1.0 BlueSky/1.10.0 BMM/2023-1.0-py310-tiled
# Beamline.name: BMM (06BM) -- Beamline for Materials Measurement (NIST)
# Beamline.xray_source: NSLS-II three-pole wiggler
# Beamline.collimation: paraboloid mirror, 5 nm Rh on 30 nm Pt
# Beamline.focusing: not in use
# Beamline.harmonic_rejection: flat mirror, Pt stripe, pitch = 7.0 mrad relative to beam
# Beamline.software: Bluesky 1.10.0, Ophyd 1.7.0, DataBroker 2.0.0b13, Python 3.10.8, 2023-1.0-py310-tiled
# Detector.I0: 10 cm N2
# Detector.I1: 25 cm N2
# Detector.I2: 25 cm N2
# Element.symbol: Ta
# Element.edge: L3
# Element.reference: Ta
# Element.reference_material: Ta2O5
# Facility.name: NSLS-II
# Facility.energy: 3.0
# Facility.current: 400.7
# Facility.mode: top-off
# Facility.GUP: 301027
# Facility.SAF: 310583
# Facility.cycle: 2023-2
# Mono.name: Si(111)
# Mono.d_spacing: 3.13519
# Mono.encoder_resolution: 0.0000050 deg/ct
# Mono.angle_offset: 16.0754 deg
# Mono.scan_mode: pseudo channel cut
# Mono.scan_type: step
# Mono.direction: forward in energy
# Sample.name: Ta2O5
# Sample.prep: PEG pellet
# Sample.x: 109.138 mm
# Sample.y: 153.150 mm
# Sample.SDD_position: 205.000 mm
# Scan.experimenters: Bruce Ravel
# Scan.edge_energy: 9881.1
# Scan.start_time: 2023-05-28T17:17:41
# Scan.end_time: 2023-05-28T17:26:06
# Scan.transient_id: 78868
# Scan.uid: 1d04acbc-6002-4840-94b4-21c7ac5369c5
# Scan.plot_hint: ln(It/Ir)  --  ln($6/$7)
# Column.1: energy eV
# Column.2: requested_energy eV
# Column.3: measurement_time seconds
# Column.4: xmu
# Column.5: I0 nA
# Column.6: It nA
# Column.7: Ir nA
# ///////////
# sample courtesy Martin Stennett, University of Sheffield
# -----------
# energy  requested_energy  measurement_time  xmu  I0  It  Ir
  9681.073  9681.100  0.500  1.451953  104.457  156.122  36.5502
  9711.165  9711.100  0.500  1.440248  102.809  154.044  36.4883
  9741.116  9741.100  0.500  1.428675  103.321  155.199  37.1898
  9771.158  9771.100  0.500  1.417525  102.663  154.59  37.4591
  9801.119  9801.100  0.500  1.407375  102.153  154.177  37.7402
  9831.114  9831.100  0.500  1.401120  101.611  153.723  37.8651
  9853.084  9853.100  0.500  1.409460  101.224  153.395  37.4707
  9859.074  9859.100  0.500  1.420053  101.122  153.308  37.0547
  9865.071  9865.100  0.500  1.443395  101.022  153.238  36.1832
  9871.071  9871.100  0.500  1.504094  100.905  153.143  34.0312
  9871.960  9872.000  0.500  1.520082  100.881  153.092  33.4803
  9872.870  9872.900  0.500  1.540117  100.855  153.088  32.8153
  9873.785  9873.800  0.500  1.565660  100.831  153.067  31.9834
  9874.678  9874.700  0.500  1.597405  100.8  153.032  30.9769
  9875.581  9875.600  0.500  1.636383  100.787  153.015  29.7894
  9876.483  9876.500  0.500  1.686092  100.772  152.99  28.3402
  9877.382  9877.400  0.500  1.753008  100.722  152.957  26.5001
  9878.276  9878.300  0.500  1.843343  100.708  152.923  24.2058
  9879.184  9879.200  0.500  1.966984  100.664  152.864  21.3824
  9880.091  9880.100  0.500  2.131739  100.612  152.796  18.1263
  9880.990  9881.000  0.500  2.353790  100.336  152.398  14.4791
  9881.898  9881.900  0.500  2.630436  98.9286  150.266  10.8262
  9882.793  9882.800  0.500  2.914761  98.1842  149.146  8.086234
  9883.680  9883.700  0.500  3.112454  99.2229  150.729  6.706166
  9884.580  9884.600  0.500  3.201083  100.199  152.237  6.198795
  9885.493  9885.500  0.500  3.219882  100.35  152.485  6.093251
  9886.397  9886.400  0.500  3.196386  100.383  152.563  6.241323
  9887.297  9887.300  0.500  3.132908  100.371  152.513  6.648158
  9888.202  9888.200  0.500  3.023602  100.351  152.506  7.415709
  9889.094  9889.100  0.500  2.874457  100.332  152.489  8.607519
  9889.991  9890.000  0.500  2.702932  100.316  152.473  10.217
  9890.905  9890.900  0.500  2.538781  100.295  152.453  12.0381
  9891.797  9891.800  0.500  2.406866  100.269  152.423  13.7329
  9892.707  9892.700  0.500  2.307108  100.238  152.377  15.1689
  9893.605  9893.600  0.500  2.235955  100.207  152.345  16.2842
  9894.498  9894.500  0.500  2.188248  100.176  152.313  17.0763
  9895.404  9895.400  0.500  2.156949  100.152  152.294  17.617
  9896.306  9896.300  0.500  2.134636  100.13  152.242  18.0083
  9897.208  9897.200  0.500  2.117792  100.086  152.185  18.3074
  9898.098  9898.100  0.500  2.103920  100.066  152.174  18.5617
  9898.983  9899.000  0.500  2.093107  100.349  152.633  18.8201
  9899.882  9899.900  0.500  2.084488  100.345  152.617  18.9811
  9900.797  9900.800  0.500  2.077410  100.326  152.587  19.1122
  9901.709  9901.700  0.500  2.071286  100.288  152.56  19.2261
  9902.608  9902.600  0.500  2.066111  100.268  152.529  19.322
  9903.494  9903.500  0.500  2.062406  100.244  152.523  19.3929
  9904.385  9904.400  0.500  2.059147  100.218  152.485  19.4514
  9905.284  9905.300  0.500  2.056124  100.194  152.444  19.5051
  9906.099  9906.100  0.500  2.052734  100.179  152.457  19.5729
  9909.172  9909.110  0.500  2.035357  100.082  152.347  19.9017
  9912.261  9912.300  0.500  2.017812  99.9641  152.213  20.2361
  9915.631  9915.660  0.500  2.032990  99.9002  152.134  19.921
  9919.153  9919.180  0.500  2.062789  99.8329  152.09  19.3305
  9922.870  9922.880  0.500  2.095212  99.7415  151.982  18.7005
  9926.729  9926.750  0.500  2.130472  99.631  151.858  18.0379
  9930.792  9930.800  0.500  2.161171  99.4191  151.568  17.4591
  9934.991  9935.010  0.500  2.174196  99.4465  151.655  17.2431
  9939.395  9939.390  0.500  2.164664  99.4732  151.744  17.4185
  9943.939  9943.950  0.500  2.142444  99.3581  151.62  17.7953
  9948.676  9948.680  0.500  2.117034  99.2351  151.501  18.2389
  9953.572  9953.580  0.500  2.099295  97.3522  148.673  18.2188
  9958.661  9958.650  0.500  2.091559  98.9912  151.225  18.6755
  9963.897  9963.890  0.500  2.087771  98.8473  151.084  18.7288
  9969.311  9969.310  0.500  2.080850  95.9015  146.625  18.3023
  9974.891  9974.890  0.500  2.078542  98.7657  151.098  18.9042
  9980.662  9980.650  0.500  2.083200  98.5749  150.852  18.7857
  9986.582  9986.580  0.500  2.090635  98.1728  150.314  18.5801
  9992.695  9992.680  0.500  2.096636  98.3337  150.626  18.5072
  9998.967  9998.950  0.500  2.101718  96.4703  147.826  18.0712
  10005.403  10005.390  0.500  2.106231  98.1865  150.544  18.3206
  10011.999  10012.000  0.500  2.106574  97.9866  150.295  18.284
  10018.800  10018.790  0.500  2.101016  97.8145  150.098  18.3618
  10025.762  10025.750  0.500  2.093131  97.7161  150.03  18.4988
  10032.887  10032.870  0.500  2.086513  97.5139  149.815  18.595
  10040.157  10040.170  0.500  2.080698  97.5174  149.88  18.7115
  10047.665  10047.650  0.500  2.075193  97.3444  149.703  18.7925
  10055.311  10055.290  0.500  2.070213  97.1787  149.514  18.8625
  10063.114  10063.100  0.500  2.067247  97.0072  149.326  18.8947
  10071.118  10071.090  0.500  2.067301  96.8473  149.181  18.8754
  10079.267  10079.250  0.500  2.067206  96.6757  149.014  18.8561
  10087.579  10087.570  0.500  2.066299  96.3671  148.624  18.8237
  10096.090  10096.070  0.500  2.065061  96.2923  148.592  18.8431
  10104.766  10104.750  0.500  2.062029  96.1498  148.46  18.8835
  10113.586  10113.590  0.500  2.057873  96.1798  148.611  18.9814
  10122.626  10122.600  0.500  2.054783  96.0686  148.506  19.0267
  10131.784  10131.790  0.500  2.053373  95.8963  148.33  19.031
  10141.164  10141.150  0.500  2.050092  95.7054  148.15  19.0703
  10150.673  10150.670  0.500  2.044926  95.5126  147.951  19.1433
  10160.379  10160.370  0.500  2.038695  95.3137  147.739  19.2354
  10170.248  10170.250  0.500  2.034575  95.1124  147.533  19.2878
  10180.297  10180.290  0.500  2.032257  94.9102  147.315  19.3041
  10190.515  10190.500  0.500  2.029415  94.6994  147.076  19.3277
  10200.912  10200.890  0.500  2.025511  94.4906  146.881  19.3774
  10211.470  10211.450  0.500  2.021211  94.2446  146.58  19.4211
  10222.209  10222.180  0.500  2.016964  94.0369  146.356  19.4739
  10233.089  10233.080  0.500  2.013490  93.8058  146.128  19.5113
  10244.175  10244.150  0.500  2.009726  93.59  145.895  19.5537
  10255.398  10255.390  0.500  2.005452  93.366  145.629  19.6015
  10266.830  10266.810  0.500  2.000252  93.1257  145.386  19.671
  10278.415  10278.390  0.500  1.994548  92.7207  144.865  19.7126
  10290.174  10290.150  0.500  1.989905  92.6519  144.875  19.8057
  10302.117  10302.080  0.500  1.986102  92.4003  144.59  19.842
  10314.203  10314.180  0.500  1.982279  92.1466  144.313  19.8798
  10326.485  10326.450  0.500  1.977509  91.9188  144.038  19.9368
  10338.921  10338.890  0.500  1.971869  91.6431  143.739  20.008
  10351.536  10351.510  0.500  1.966309  91.3938  143.473  20.0823
  10364.327  10364.290  0.500  1.961727  91.1185  143.155  20.1298
  10377.281  10377.250  0.500  1.957584  90.8107  142.778  20.1601
  10390.423  10390.380  0.500  1.953109  90.5358  142.45  20.2041
  10403.692  10403.680  0.500  1.947566  90.2598  142.144  20.2726
  10417.170  10417.150  0.500  1.941223  89.98  141.813  20.3541
  10430.824  10430.800  0.500  1.935487  89.6915  141.495  20.4253
  10444.648  10444.610  0.500  1.930812  89.4101  141.182  20.4757
  10458.637  10458.600  0.500  1.926011  89.1282  140.858  20.527
  10472.793  10472.760  0.500  1.920803  88.8161  140.48  20.5788
  10487.130  10487.090  0.500  1.914800  88.5172  140.127  20.6507
  10501.623  10501.590  0.500  1.908598  88.2057  139.742  20.722
  10516.295  10516.260  0.500  1.903077  87.8842  139.365  20.7805
  10531.124  10531.100  0.500  1.898167  87.5742  139  20.8282
  10546.141  10546.120  0.500  1.892873  87.2601  138.629  20.8828
  10561.332  10561.300  0.500  1.886871  86.9466  138.258  20.9523
  10576.718  10576.660  0.500  1.880209  86.606  137.846  21.0295
  10592.218  10592.190  0.500  1.873732  86.2926  137.452  21.1057
  10607.935  10607.890  0.500  1.868124  85.9358  137.013  21.1566
  10623.797  10623.760  0.500  1.863004  85.6244  136.641  21.2074
  10639.835  10639.810  0.500  1.857391  85.2694  136.207  21.2591
  10656.046  10656.020  0.500  1.850915  84.9522  135.82  21.3364
  10672.436  10672.410  0.500  1.843781  84.5978  135.379  21.4194
  10688.995  10688.970  0.500  1.836977  84.2689  134.962  21.4991
  10705.717  10705.700  0.500  1.831431  83.9262  134.554  21.5534
  10722.637  10722.600  0.500  1.825891  83.5713  134.097  21.5995
  10733.990  10733.960  0.500  1.821895  83.3206  133.792  21.6368