Folder: webxdiviewer/xdidata/Ta

Note: xdidata/README.md
# bmm-standards
A pretty webpage for BMM's collection of common XAFS materials

[BMM's common materials collection](./BMM-standards.html)

Plotting of the data will happen soon.

Periodic table adapted from [some guy named Daniel](https://codepen.io/gooseofmusic/pen/PjKdNQ)

[This](https://www.coderstool.com/scss-to-css) is a helpful tool for
dealing with Sassy CSS.

File: Ta-L1-TantalumOxide.xdi
# XDI/1.0 BlueSky/1.10.0 BMM/2023-1.0-py310-tiled
# Beamline.name: BMM (06BM) -- Beamline for Materials Measurement (NIST)
# Beamline.xray_source: NSLS-II three-pole wiggler
# Beamline.collimation: paraboloid mirror, 5 nm Rh on 30 nm Pt
# Beamline.focusing: not in use
# Beamline.harmonic_rejection: flat mirror, Pt stripe, pitch = 7.0 mrad relative to beam
# Beamline.software: Bluesky 1.10.0, Ophyd 1.7.0, DataBroker 2.0.0b13, Python 3.10.8, 2023-1.0-py310-tiled
# Detector.I0: 10 cm N2
# Detector.I1: 25 cm N2
# Detector.I2: 25 cm N2
# Element.symbol: Ta
# Element.edge: L1
# Element.reference: Ta
# Element.reference_material: Ta2O5
# Facility.name: NSLS-II
# Facility.energy: 3.0
# Facility.current: 399.9
# Facility.mode: top-off
# Facility.GUP: 301027
# Facility.SAF: 310583
# Facility.cycle: 2023-2
# Mono.name: Si(111)
# Mono.d_spacing: 3.13519
# Mono.encoder_resolution: 0.0000050 deg/ct
# Mono.angle_offset: 16.0754 deg
# Mono.scan_mode: pseudo channel cut
# Mono.scan_type: step
# Mono.direction: forward in energy
# Sample.name: Ta2O5
# Sample.prep: PEG pellet
# Sample.x: 109.138 mm
# Sample.y: 153.150 mm
# Sample.SDD_position: 205.000 mm
# Scan.experimenters: Bruce Ravel
# Scan.edge_energy: 11681.5
# Scan.start_time: 2023-05-28T19:08:01
# Scan.end_time: 2023-05-28T19:16:03
# Scan.transient_id: 78938
# Scan.uid: 44f7c9a6-fd67-4f65-bfdf-29df0958bcaf
# Scan.plot_hint: ln(It/Ir)  --  ln($6/$7)
# Column.1: energy eV
# Column.2: requested_energy eV
# Column.3: measurement_time seconds
# Column.4: xmu
# Column.5: I0 nA
# Column.6: It nA
# Column.7: Ir nA
# ///////////
# sample courtesy Martin Stennett, University of Sheffield
# -----------
# energy  requested_energy  measurement_time  xmu  I0  It  Ir
  11481.482  11481.500  0.500  1.871179  69.3534  115.446  17.772
  11511.598  11511.500  0.500  1.862399  68.8186  114.695  17.8121
  11541.533  11541.500  0.500  1.852731  68.2637  113.916  17.8629
  11571.522  11571.500  0.500  1.844932  66.5124  111.126  17.5619
  11601.553  11601.500  0.500  1.835747  66.2282  110.774  17.6678
  11631.536  11631.500  0.500  1.828144  65.7931  110.182  17.7075
  11653.479  11653.500  0.500  1.823622  65.5018  109.784  17.7236
  11659.471  11659.500  0.500  1.822611  65.3229  109.522  17.6991
  11665.494  11665.500  0.500  1.821918  65.2949  109.503  17.7083
  11671.481  11671.500  0.500  1.822198  65.2096  109.373  17.6824
  11672.358  11672.400  0.500  1.822265  65.2006  109.353  17.6779
  11673.247  11673.300  0.500  1.822547  65.1877  109.351  17.6726
  11674.172  11674.200  0.500  1.822918  65.1728  109.334  17.6633
  11675.061  11675.100  0.500  1.823284  65.1618  109.316  17.6539
  11675.980  11676.000  0.500  1.823860  65.1477  109.298  17.6408
  11676.875  11676.900  0.500  1.824556  65.1223  109.252  17.6211
  11677.777  11677.800  0.500  1.825518  65.0048  109.067  17.5744
  11678.673  11678.700  0.500  1.826703  64.9708  108.989  17.541
  11679.586  11679.600  0.500  1.828735  65.1487  109.309  17.5568
  11680.482  11680.500  0.500  1.831339  65.2328  109.452  17.5341
  11681.402  11681.400  0.500  1.834783  65.24  109.463  17.4755
  11682.287  11682.300  0.500  1.839389  65.2268  109.46  17.3947
  11683.189  11683.200  0.500  1.844401  65.211  109.449  17.3061
  11684.104  11684.100  0.500  1.849411  65.1968  109.415  17.2142
  11684.988  11685.000  0.500  1.853439  65.1735  109.382  17.1398
  11685.879  11685.900  0.500  1.857000  65.1551  109.349  17.0738
  11686.782  11686.800  0.500  1.860174  65.1401  109.32  17.0151
  11687.685  11687.700  0.500  1.862925  65.1253  109.306  16.9662
  11688.601  11688.600  0.500  1.865305  65.1124  109.286  16.9228
  11689.498  11689.500  0.500  1.867846  65.0879  109.263  16.8763
  11690.413  11690.400  0.500  1.871360  65.0733  109.242  16.8139
  11691.293  11691.300  0.500  1.876021  65.0599  109.216  16.7318
  11692.197  11692.200  0.500  1.882119  65.0434  109.192  16.6264
  11693.089  11693.100  0.500  1.889615  65.0223  109.158  16.4971
  11693.993  11694.000  0.500  1.899174  65.0033  109.135  16.3367
  11694.886  11694.900  0.500  1.910095  64.9945  109.114  16.1561
  11695.796  11695.800  0.500  1.922834  64.9757  109.09  15.9481
  11696.712  11696.700  0.500  1.936111  64.9582  109.074  15.7355
  11697.617  11697.600  0.500  1.948834  64.9456  109.045  15.5324
  11698.492  11698.500  0.500  1.958644  64.9304  109.025  15.3779
  11699.391  11699.400  0.500  1.966015  64.9119  108.998  15.2612
  11700.284  11700.300  0.500  1.969838  64.8881  108.972  15.1993
  11701.201  11701.200  0.500  1.970985  64.8546  108.903  15.1723
  11702.101  11702.100  0.500  1.970622  64.6688  108.592  15.1345
  11703.000  11703.000  0.500  1.969913  64.4798  108.288  15.1028
  11703.912  11703.900  0.500  1.969774  64.5428  108.391  15.1193
  11704.806  11704.800  0.500  1.970547  64.7373  108.733  15.1553
  11705.688  11705.700  0.500  1.971243  64.7801  108.805  15.1548
  11706.481  11706.500  0.500  1.971526  64.7802  108.807  15.1508
  11709.516  11709.510  0.500  1.968367  64.7344  108.748  15.1904
  11712.767  11712.700  0.500  1.968228  64.6623  108.643  15.1778
  11716.050  11716.060  0.500  1.970156  64.6093  108.555  15.1363
  11719.575  11719.580  0.500  1.961960  64.5536  108.489  15.2516
  11723.268  11723.280  0.500  1.946586  64.4941  108.404  15.4758
  11727.132  11727.150  0.500  1.933614  64.4367  108.325  15.6664
  11731.207  11731.200  0.500  1.926310  64.3752  108.232  15.7677
  11735.418  11735.410  0.500  1.923791  64.0614  107.72  15.7328
  11739.781  11739.790  0.500  1.921968  64.2306  108.031  15.807
  11744.358  11744.350  0.500  1.920728  64.1618  107.928  15.8115
  11749.082  11749.080  0.500  1.921099  64.0843  107.806  15.7877
  11754.002  11753.980  0.500  1.922486  64.0242  107.742  15.7565
  11759.059  11759.050  0.500  1.923489  63.8888  107.526  15.7091
  11764.289  11764.290  0.500  1.925007  64.1015  107.908  15.741
  11769.717  11769.710  0.500  1.927726  63.8091  107.432  15.6291
  11775.289  11775.290  0.500  1.929687  63.934  107.669  15.6328
  11781.071  11781.050  0.500  1.929004  63.8669  107.585  15.6313
  11786.973  11786.980  0.500  1.924407  63.7936  107.471  15.6868
  11793.082  11793.080  0.500  1.920145  63.6997  107.346  15.7354
  11799.342  11799.350  0.500  1.916451  63.6015  107.197  15.7717
  11805.791  11805.790  0.500  1.913228  63.2021  106.553  15.7276
  11812.423  11812.400  0.500  1.910283  63.3816  106.882  15.8226
  11819.215  11819.190  0.500  1.907791  63.2704  106.727  15.8392
  11826.148  11826.150  0.500  1.905870  63.1674  106.573  15.8466
  11833.267  11833.270  0.500  1.903814  63.062  106.422  15.8568
  11840.601  11840.570  0.500  1.901171  62.9747  106.305  15.8813
  11848.061  11848.050  0.500  1.899445  62.6837  105.846  15.84
  11855.708  11855.690  0.500  1.898147  62.5626  105.676  15.8351
  11863.505  11863.500  0.500  1.896970  62.5291  105.65  15.8499
  11871.498  11871.490  0.500  1.895044  62.4032  105.465  15.8526
  11879.666  11879.650  0.500  1.892300  62.3897  105.475  15.8977
  11887.976  11887.970  0.500  1.889320  62.2252  105.228  15.9078
  11896.482  11896.470  0.500  1.886187  62.1204  105.085  15.9361
  11905.166  11905.150  0.500  1.883182  61.9902  104.897  15.9553
  11913.988  11913.990  0.500  1.880196  61.8743  104.736  15.9785
  11923.008  11923.000  0.500  1.877406  61.7695  104.585  16.0001
  11932.209  11932.190  0.500  1.874213  61.6236  104.383  16.0203
  11941.549  11941.550  0.500  1.870957  61.4946  104.197  16.0439
  11951.078  11951.070  0.500  1.868237  61.3628  104.007  16.0582
  11960.784  11960.770  0.500  1.865762  61.2292  103.813  16.0679
  11970.668  11970.650  0.500  1.863617  61.08  103.586  16.0673
  11980.706  11980.690  0.500  1.861019  60.9371  103.384  16.0777
  11990.924  11990.900  0.500  1.857884  60.7779  103.153  16.0921
  12001.298  12001.290  0.500  1.854527  60.6363  102.957  16.1156
  12011.872  12011.850  0.500  1.851105  60.4965  102.744  16.1373
  12022.585  12022.580  0.500  1.847761  60.3411  102.524  16.1567
  12033.487  12033.480  0.500  1.844362  60.1869  102.3  16.1764
  12044.567  12044.550  0.500  1.840741  59.9761  101.989  16.1857
  12055.794  12055.790  0.500  1.837350  59.8266  101.77  16.2058
  12067.220  12067.210  0.500  1.833871  59.6764  101.553  16.2275
  12078.795  12078.790  0.500  1.830857  59.4959  101.28  16.2328
  12090.552  12090.550  0.500  1.827783  59.2818  100.961  16.2314
  12102.492  12102.480  0.500  1.824452  59.1728  100.825  16.2637
  12114.608  12114.580  0.500  1.820730  59.0016  100.556  16.2808
  12126.859  12126.850  0.500  1.816784  58.8118  100.276  16.2996
  12139.294  12139.290  0.500  1.812801  58.6515  100.051  16.3279
  12151.930  12151.910  0.500  1.809415  58.4705  99.7911  16.3408
  12164.714  12164.690  0.500  1.805847  58.2882  99.5145  16.3537
  12177.668  12177.650  0.500  1.802285  58.0922  99.2181  16.3632
  12190.811  12190.780  0.500  1.798502  57.9021  98.9412  16.3794
  12204.107  12204.080  0.500  1.794653  57.7239  98.6746  16.3982
  12217.588  12217.550  0.500  1.790639  57.5316  98.3906  16.4168
  12231.223  12231.200  0.500  1.786672  57.3248  98.0849  16.4309
  12245.033  12245.010  0.500  1.782842  57.1173  97.7716  16.4412
  12259.037  12259.000  0.500  1.778939  56.9241  97.4831  16.4568
  12273.186  12273.160  0.500  1.774647  56.7209  97.1723  16.4749
  12287.513  12287.490  0.500  1.770625  56.4773  96.8001  16.478
  12302.045  12301.990  0.500  1.766755  56.296  96.5339  16.4963
  12316.698  12316.660  0.500  1.762774  56.28  96.5531  16.5655
  12331.545  12331.500  0.500  1.758663  56.077  96.2527  16.5819
  12346.548  12346.520  0.500  1.754359  55.8766  95.954  16.6018
  12361.742  12361.700  0.500  1.749862  55.6681  95.6337  16.6209
  12377.120  12377.060  0.500  1.745423  55.4417  95.2915  16.6351
  12392.630  12392.590  0.500  1.741426  55.2399  95.0026  16.6511
  12408.328  12408.290  0.500  1.737346  55.0006  94.6319  16.654
  12424.220  12424.160  0.500  1.733162  54.7933  94.3155  16.6679
  12440.242  12440.210  0.500  1.728525  54.5649  93.9674  16.6835
  12456.467  12456.420  0.500  1.723952  54.3433  93.6277  16.6994
  12472.858  12472.810  0.500  1.719190  54.1054  93.2667  16.7144
  12489.415  12489.370  0.500  1.714930  53.8936  92.9441  16.7277
  12506.159  12506.100  0.500  1.710499  53.6373  92.5333  16.7278
  12523.024  12523.000  0.500  1.706183  53.424  92.2229  16.7438
  12534.394  12534.360  0.500  1.703036  53.2448  91.9489  16.7466

File: Ta-L3-Ta2O3.xdi
# XDI/1.0 BlueSky/1.5.3
# Beamline.name: 6BM
# Beamline.xray_source: NSLS-II three-pole wiggler
# Beamline.collimation: paraboloid mirror, 5 nm Rh on 30 nm Pt
# Beamline.focusing: not in use
# Beamline.harmonic_rejection: flat mirror, Pt stripe, pitch = 7.0 mrad relative to beam
# Detector.i0: 10 cm N2
# Detector.i1: 25 cm N2
# Detector.i2: 25 cm N2
# Element.symbol: Ta
# Element.edge: L3
# Facility.name: NSLS-II
# Facility.energy: 3.0
# Facility.current: 400.7
# Facility.mode: top-off
# Facility.gup: 305832
# Facility.saf: 305669
# Facility.cycle: 2020-1
# Mono.name: Si(111)
# Mono.d_spacing: 3.13532
# Mono.encoder_resolution: 0.0000050 deg/ct
# Mono.angle_offset: 16.0581 deg
# Mono.scan_mode: fixed exit
# Mono.scan_type: step
# Mono.direction: forward in energy
# Sample.name: Ta2O3
# Sample.prep: Powder in polyethylene glycol pellet
# Sample.x_position: -5.367 mm
# Sample.y_position: 103.555 mm
# Scan.experimenters: Neil Hyatt, Martin Stennett, Dan Austin, Seb Lawson
# Scan.edge_energy: 9881.1
# Scan.start_time: 2020-03-05T01:00:54
# Scan.end_time: 2020-03-05T18:34:04
# Scan.transient_id: 22951
# Scan.uid: e820bc4d-b17e-4e1d-8068-1a815f9a3f3c
# Scan.plot_hint: ln(I0/It)  --  ln($5/$6)
# Scan.sequence: merge of 2 scans
# Column.1: energy eV
# Column.2: requested_energy eV
# Column.3: measurement_time seconds
# Column.4: mutrans
# Column.5: i0
# Column.6: itrans
# Column.7: irefer
# /////
#
# -----
# energy   requested_energy   measurement_time   mutrans   i0   itrans   irefer
9681.11 9681.1 1.000000 0.383541 113.633 77.6981 34.0632
9711.16 9711.1 1.000000 0.374745 112.85 77.8415 34.3679
9741.13 9741.1 1.000000 0.366244 112.043 77.9386 34.649
9771.08 9771.1 1.000000 0.357903 111.047 77.888 34.8583
9801.1 9801.1 1.000000 0.350301 110.229 77.9024 35.08
9831.09 9831.1 1.000000 0.345194 109.42 77.7251 35.156
9853.08 9853.1 1.000000 0.350514 108.754 76.8479 34.6535
9859.07 9859.1 1.000000 0.358098 108.565 76.1397 34.1446
9865.08 9865.1 1.000000 0.375235 108.383 74.733 33.0816
9871.09 9871.1 1.000000 0.422117 108.207 71.2207 30.2768
9871.82 9871.85 1.000000 0.432987 108.174 70.428 29.6349
9872.58 9872.6 1.000000 0.446028 108.132 69.4924 28.8756
9873.33 9873.35 1.000000 0.461634 108.098 68.4104 27.9946
9874.08 9874.1 1.000000 0.480796 108.08 67.1159 26.9452
9874.83 9874.85 1.000000 0.504598 108.044 65.5377 25.6827
9875.58 9875.6 1.000000 0.534280 108.012 63.612 24.1995
9876.34 9876.35 1.000000 0.572103 107.961 61.2335 22.4868
9877.1 9877.1 1.000000 0.619170 107.914 58.3953 20.6748
9877.85 9877.85 1.000000 0.679860 107.725 54.8672 18.7741
9878.6 9878.6 1.000000 0.760272 106.816 50.2475 16.7143
9879.35 9879.35 1.000000 0.867880 105.642 44.6568 14.603
9880.09 9880.1 1.000000 1.004914 105.561 38.9669 12.6358
9880.84 9880.85 1.000000 1.160983 106.89 33.8028 10.9632
9881.59 9881.6 1.000000 1.313984 107.663 29.2702 9.558180
9882.34 9882.35 1.000000 1.436618 107.825 25.9709 8.584237
9883.1 9883.1 1.000000 1.510337 107.863 24.2009 8.103344
9883.85 9883.85 1.000000 1.539338 107.88 23.5342 7.969580
9884.61 9884.6 1.000000 1.540752 107.857 23.51 8.033393
9885.36 9885.35 1.000000 1.523812 107.849 23.9158 8.237076
9886.1 9886.1 1.000000 1.489888 107.81 24.7336 8.583050
9886.85 9886.85 1.000000 1.433909 107.76 26.1439 9.129622
9887.6 9887.6 1.000000 1.353337 107.73 28.3156 9.915420
9888.35 9888.35 1.000000 1.256414 107.687 31.1328 10.8996
9889.09 9889.1 1.000000 1.159551 107.623 34.1908 11.9454
9889.84 9889.85 1.000000 1.073647 107.583 37.2224 12.9671
9890.61 9890.6 1.000000 0.999564 107.525 40.0124 13.8999
9891.36 9891.35 1.000000 0.941202 107.476 42.3792 14.7018
9892.1 9892.1 1.000000 0.896020 107.439 44.2796 15.3503
9892.85 9892.85 1.000000 0.862948 107.389 45.7149 15.856
9893.6 9893.6 1.000000 0.840964 107.348 46.7003 16.2237
9894.34 9894.35 1.000000 0.825631 107.313 47.3823 16.4958
9895.09 9895.1 1.000000 0.813424 107.266 47.9343 16.7286
9895.86 9895.85 1.000000 0.803398 107.226 48.3977 16.933
9896.6 9896.6 1.000000 0.794947 107.197 48.7874 17.1061
9897.35 9897.35 1.000000 0.788080 107.141 49.0933 17.2445
9898.11 9898.1 1.000000 0.782766 107.128 49.3514 17.3698
9898.85 9898.85 1.000000 0.778342 107.072 49.5372 17.4586
9899.6 9899.6 1.000000 0.774457 107.031 49.7051 17.5449
9900.35 9900.35 1.000000 0.771083 106.982 49.8472 17.6243
9901.1 9901.1 1.000000 0.767980 106.944 49.9834 17.7058
9901.84 9901.85 1.000000 0.765590 107.097 50.1852 17.8221
9902.59 9902.6 1.000000 0.763634 107.051 50.2611 17.8656
9903.35 9903.35 1.000000 0.762024 107.211 50.4038 17.9105
9904.11 9904.1 1.000000 0.760301 107.159 50.4644 17.9382
9904.85 9904.85 1.000000 0.758293 107.118 50.5453 17.9714
9905.6 9905.6 1.000000 0.755907 107.076 50.6444 18.012
9906.36 9906.35 1.000000 0.753359 107.025 50.7486 18.0555
9907.1 9907.1 1.000000 0.750675 106.999 50.8706 18.1081
9907.84 9907.85 1.000000 0.747606 106.975 51.016 18.1725
9908.59 9908.6 1.000000 0.744266 106.936 51.1654 18.2386
9909.35 9909.35 1.000000 0.740908 106.917 51.3269 18.3044
9910.1 9910.1 1.000000 0.737940 106.908 51.4748 18.3686
9910.85 9910.85 1.000000 0.735852 106.873 51.5628 18.4014
9913.3 9913.28 1.000000 0.738840 106.796 51.3731 18.334
9916.7 9916.68 1.000000 0.757228 106.696 50.4009 18.0465
9920.27 9920.26 1.000000 0.776234 106.565 49.4041 17.7981
9924.03 9924.01 1.000000 0.798590 106.427 48.2602 17.4217
9927.94 9927.93 1.000000 0.819937 106.205 47.1565 16.9886
9932.05 9932.03 1.000000 0.834524 104.81 45.8892 16.5437
9936.3 9936.29 1.000000 0.833535 106.039 46.4578 16.7467
9940.74 9940.73 1.000000 0.822365 105.872 46.9018 16.9366
9945.35 9945.34 1.000000 0.805607 105.67 47.5927 17.189
9950.12 9950.11 1.000000 0.791170 105.478 48.1897 17.3732
9955.08 9955.07 1.000000 0.783079 104.701 48.2089 17.346
9960.19 9960.19 1.000000 0.780199 105.119 48.5514 17.5534
9965.51 9965.48 1.000000 0.776412 104.832 48.5989 17.627
9970.96 9970.94 1.000000 0.772554 104.22 48.5166 17.6246
9976.59 9976.58 1.000000 0.773198 104.658 48.6751 17.6683
9982.39 9982.39 1.000000 0.777228 103.354 47.8629 17.362
9988.36 9988.37 1.000000 0.781687 104.13 48.0255 17.4353
9994.52 9994.52 1.000000 0.784628 103.727 47.7024 17.3122
10000.8 10000.8 1.000000 0.787804 104.021 47.6973 17.3322
10007.3 10007.3 1.000000 0.789371 103.875 47.5468 17.2903
10014 10014 1.000000 0.787677 103.655 47.5296 17.3698
10020.9 10020.8 1.000000 0.782552 103.451 47.6767 17.4788
10027.9 10027.8 1.000000 0.777533 103.165 47.7808 17.5327
10035 10035 1.000000 0.773477 102.578 47.6995 17.5166
10042.4 10042.4 1.000000 0.769400 102.679 47.9398 17.611
10049.9 10049.9 1.000000 0.765897 102.413 47.9817 17.6192
10057.6 10057.6 1.000000 0.762676 102.121 47.9974 17.5634
10065.5 10065.5 1.000000 0.761324 101.798 47.9086 17.5441
10073.5 10073.5 1.000000 0.761324 101.513 47.7749 17.6457
10081.7 10081.7 1.000000 0.760658 101.241 47.6797 17.6733
10090.1 10090.1 1.000000 0.759643 98.6262 46.4906 17.2387
10098.7 10098.6 1.000000 0.758242 100.53 47.4566 17.6086
10107.4 10107.4 1.000000 0.755526 100.251 47.4527 17.6079
10116.2 10116.2 1.000000 0.752640 99.9341 47.4382 17.6161
10125.3 10125.3 1.000000 0.750800 99.6265 47.379 17.5926
10134.6 10134.5 1.000000 0.749314 99.2426 47.266 17.587
10144 10144 1.000000 0.746402 98.915 47.2442 17.6431
10153.5 10153.5 1.000000 0.741974 98.573 47.2892 17.7218
10163.3 10163.3 1.000000 0.738244 98.2151 47.2913 17.7503
10173.2 10173.2 1.000000 0.735773 97.8664 47.2403 17.7421
10183.3 10183.3 1.000000 0.733974 97.4809 47.1376 17.7108
10193.6 10193.6 1.000000 0.731520 96.8192 46.9341 17.6581
10204 10204 1.000000 0.728371 96.6949 47.0184 17.7332
10214.6 10214.6 1.000000 0.725199 96.2796 46.9643 17.7645
10225.4 10225.4 1.000000 0.722279 95.8745 46.9024 17.7932
10236.4 10236.3 1.000000 0.719572 95.4822 46.8364 17.8021
10247.5 10247.5 1.000000 0.716623 95.1024 46.7876 17.8126
10258.8 10258.8 1.000000 0.713248 94.8412 46.8252 17.8706
10270.2 10270.2 1.000000 0.709170 94.508 46.8431 17.8975
10281.9 10281.9 1.000000 0.705350 94.0863 46.8103 17.9079
10293.7 10293.7 1.000000 0.702198 93.6216 46.7237 17.9221
10305.7 10305.6 1.000000 0.699277 93.1703 46.6317 17.933
10317.8 10317.8 1.000000 0.696212 92.7311 46.5554 17.9547
10330.1 10330.1 1.000000 0.692474 92.2462 46.4825 17.9694
10342.6 10342.6 1.000000 0.688329 91.767 46.431 17.9725
10355.3 10355.3 1.000000 0.684570 91.2852 46.3589 17.9784
10368.2 10368.1 1.000000 0.681346 90.799 46.2605 17.9775
10381.1 10381.1 1.000000 0.678202 90.2733 46.1356 17.9712
10394.3 10394.3 1.000000 0.674587 89.8095 46.0652 17.9872
10407.7 10407.7 1.000000 0.670343 89.3173 46.0063 18.006
10421.2 10421.2 1.000000 0.665809 88.7996 45.9474 18.053
10434.9 10434.9 1.000000 0.661857 88.2738 45.8539 18.0659
10448.7 10448.7 1.000000 0.658457 87.7733 45.7461 18.0544
10462.8 10462.8 1.000000 0.654877 87.2699 45.6475 18.0445
10477 10477 1.000000 0.650780 86.7684 45.5705 18.0545
10491.4 10491.4 1.000000 0.646261 86.2238 45.4883 18.0752
10505.9 10505.9 1.000000 0.641910 85.7115 45.4146 18.0927
10520.6 10520.6 1.000000 0.637929 85.1682 45.3053 18.1043
10535.5 10535.5 1.000000 0.634151 84.6316 45.1899 18.1203
10550.6 10550.6 1.000000 0.630082 84.1018 45.0894 18.1334
10565.8 10565.8 1.000000 0.625522 83.5617 45.0037 18.1366
10581.3 10581.2 1.000000 0.620567 82.9782 44.9109 18.1334
10596.8 10596.8 1.000000 0.615988 82.3831 44.793 18.1257
10612.6 10612.6 1.000000 0.612068 81.8953 44.7031 18.1531
10623.2 10623.2 1.000000 0.609441 81.5423 44.6257 18.1593