Folder: webxdiviewer/xdidata/Ti (part 6)

File: Ti-K-CeTi2O6.xdi
# XDI/1.0 BlueSky/1.5.0
# Beamline.name: 6BM
# Beamline.xray_source: NSLS-II three-pole wiggler
# Beamline.collimation: paraboloid mirror, 5 nm Rh on 30 nm Pt
# Beamline.focusing: not in use
# Beamline.harmonic_rejection: flat mirror, Si stripe, pitch = 7.0 mrad relative to beam
# Detector.i0: 10 cm N2
# Detector.i1: 25 cm N2
# Detector.i2: 25 cm N2
# Element.symbol: Ti
# Element.edge: K
# Facility.name: NSLS-II
# Facility.energy: 3.0
# Facility.current: 219.3
# Facility.mode: top-off
# Facility.gup: 301027
# Facility.saf: 304156
# Mono.name: Si(111)
# Mono.d_spacing: 3.13526
# Mono.encoder_resolution: 0.0000050 deg/ct
# Mono.angle_offset: 16.0571 deg
# Mono.scan_mode: pseudo channel cut
# Mono.scan_type: step
# Mono.direction: forward in energy
# Sample.name: CeTi2O6
# Sample.prep: Powder in polyethylene glycol pellet
# Sample.x_position: -113.290 mm
# Sample.y_position: 117.505 mm
# Sample.wheel_position: 255.000 mm
# Scan.experimenters: Bruce Ravel, Martin Stennett
# Scan.edge_energy: 4966.0
# Scan.start_time: 2019-05-30T18:02:41
# Scan.end_time: 2019-05-30T18:46:13
# Scan.transient_id: 9846
# Scan.uid: 4a81d723-ebb2-4d6b-b3a6-4cdd5b77bdce
# Scan.plot_hint: (DTC1 + DTC2 + DTC3 + DTC4) / I0  --  ($8+$9+$10+$11) / $5
# Scan.sequence: merge of 3 scans
# Column.1: energy eV
# Column.2: requested_energy eV
# Column.3: measurement_time seconds
# Column.4: mutrans
# Column.5: i0
# Column.6: itrans
# Column.7: irefer
# /////
#  sample disk prepared by Martin
# -----
# energy   requested_energy   measurement_time   mutrans   i0   itrans   irefer
4766 4766 0.500000 80.1444 10.235 0.046409 0.006237
4796.01 4796 0.500000 69.0862 10.994 0.054700 0.007111
4826.01 4826 0.500000 56.461 11.7839 0.065276 0.008493
4856 4856 0.500000 48.36 12.5833 0.077393 0.009869
4886 4886 0.500000 40.3855 13.4072 0.092032 0.012304
4916 4916 0.500000 33.5175 14.2215 0.108038 0.014309
4938 4938 0.500000 30.8001 14.8527 0.121244 0.016338
4943.99 4944 0.500000 31.9154 15.0043 0.124876 0.016855
4950 4950 0.500000 33.8856 15.1417 0.128728 0.017566
4956 4956 0.500000 37.5709 15.2847 0.132443 0.017990
4956.74 4956.75 0.500000 36.7201 15.2997 0.132665 0.018105
4957.49 4957.5 0.500000 37.8221 15.3184 0.133134 0.017954
4958.24 4958.25 0.500000 39.1766 15.3351 0.133632 0.018175
4958.99 4959 0.500000 41.0004 15.3515 0.133988 0.018014
4959.74 4959.75 0.500000 41.4371 15.3654 0.134642 0.018265
4960.5 4960.5 0.500000 42.5151 15.3843 0.134722 0.018099
4961.24 4961.25 0.500000 44.4764 15.4062 0.135429 0.018322
4962 4962 0.500000 46.4825 15.4171 0.135783 0.018304
4962.74 4962.75 0.500000 48.4234 15.4357 0.136149 0.018090
4963.49 4963.5 0.500000 52.9534 15.4619 0.136384 0.017992
4964.25 4964.25 0.500000 55.9737 15.4735 0.136771 0.017170
4965 4965 0.500000 63.8259 15.4908 0.137050 0.014516
4965.75 4965.75 0.500000 76.7534 15.5059 0.136786 0.012785
4966.5 4966.5 0.500000 109.391 15.5164 0.135979 0.013837
4967.25 4967.25 0.500000 233.757 15.5336 0.131446 0.014022
4968 4968 0.500000 260.445 15.5465 0.130757 0.013477
4968.75 4968.75 0.500000 353.658 15.5608 0.127782 0.012772
4969.5 4969.5 0.500000 514.768 15.5656 0.121552 0.011850
4970.25 4970.25 0.500000 481.399 15.5799 0.122951 0.011758
4971 4971 0.500000 387.213 15.618 0.127217 0.011750
4971.75 4971.75 0.500000 325.985 15.6339 0.130563 0.011740
4972.5 4972.5 0.500000 361.788 15.6528 0.129601 0.011182
4973.25 4973.25 0.500000 396.232 15.6623 0.128543 0.010437
4974 4974 0.500000 382.986 15.7107 0.129923 0.010122
4974.75 4974.75 0.500000 380.433 15.7191 0.130524 0.009465
4975.5 4975.5 0.500000 420.271 15.7222 0.129225 0.009260
4976.26 4976.25 0.500000 508.777 15.7235 0.125938 0.008506
4977 4977 0.500000 630.879 15.7246 0.121861 0.008063
4977.75 4977.75 0.500000 742.483 15.7331 0.117851 0.007587
4978.5 4978.5 0.500000 850.246 15.7802 0.114324 0.007265
4979.25 4979.25 0.500000 977.487 15.7863 0.110401 0.007150
4980 4980 0.500000 1116.22 15.7818 0.106021 0.006763
4980.75 4980.75 0.500000 1300.3 15.8177 0.100066 0.006356
4981.5 4981.5 0.500000 1538.28 15.8202 0.093192 0.006005
4982.25 4982.25 0.500000 1836.11 15.8315 0.084750 0.005557
4983 4983 0.500000 2154.31 15.8461 0.076659 0.005261
4983.75 4983.75 0.500000 2376.42 15.8506 0.070723 0.004956
4984.5 4984.5 0.500000 2516.64 15.8566 0.067689 0.004886
4985.26 4985.25 0.500000 2569.31 15.8634 0.065958 0.004776
4986 4986 0.500000 2603.95 15.8735 0.065762 0.004987
4986.75 4986.75 0.500000 2614.8 15.8737 0.065930 0.004957
4987.5 4987.5 0.500000 2609.61 15.8759 0.065575 0.004885
4988.25 4988.25 0.500000 2608.86 15.8905 0.066455 0.005035
4989 4989 0.500000 2562.09 15.9277 0.068053 0.005147
4989.75 4989.75 0.500000 2506.16 15.9714 0.069558 0.005170
4990.5 4990.5 0.500000 2480.06 16.0096 0.071008 0.005343
4991.25 4991.25 0.500000 2432.5 16.0518 0.072193 0.005374
4992 4992 0.500000 2393.61 16.0875 0.073213 0.005392
4992.75 4992.75 0.500000 2369.81 16.1163 0.074284 0.005440
4993.5 4993.5 0.500000 2370.4 16.1384 0.074863 0.005506
4994.25 4994.25 0.500000 2390.44 16.1608 0.074965 0.005445
4995 4995 0.500000 2416.71 16.1759 0.074521 0.005443
4995.75 4995.75 0.500000 2459.43 16.1892 0.073171 0.005357
4998.19 4998.18 0.730000 2627.36 23.6722 0.102045 0.007103
5001.59 5001.58 0.760000 2612.86 24.7655 0.109185 0.007662
5005.17 5005.16 0.800000 2425.98 26.2736 0.125855 0.008587
5008.92 5008.91 0.840000 2200.89 27.7999 0.145523 0.009834
5012.84 5012.83 0.880000 2081.46 29.3101 0.162056 0.011283
5016.93 5016.93 0.910000 2071.41 30.5445 0.171893 0.012029
5021.19 5021.19 0.950000 2067.82 32.0814 0.184004 0.013467
5025.64 5025.63 0.990000 2054.37 33.6497 0.197004 0.014135
5030.24 5030.24 1.030000 2094.9 35.3073 0.207775 0.014792
5035.02 5035.01 1.060000 2125.24 36.5516 0.216429 0.014364
5039.98 5039.97 1.100000 2150.35 38.208 0.228108 0.014984
5045.09 5045.09 1.140000 2189.39 39.8565 0.240631 0.016128
5050.38 5050.38 1.180000 2268.21 41.4889 0.250465 0.017534
5055.84 5055.84 1.210000 2329.59 42.7942 0.258108 0.018711
5061.47 5061.48 1.250000 2371.95 44.4664 0.269570 0.019662
5067.28 5067.29 1.290000 2385.6 46.1697 0.285333 0.021067
5073.27 5073.27 1.330000 2358.59 47.8689 0.304562 0.022572
5079.42 5079.42 1.360000 2319.89 49.1985 0.325029 0.023493
5085.74 5085.74 1.400000 2306.85 50.8899 0.345092 0.023789
5092.23 5092.23 1.440000 2288.64 52.5608 0.368031 0.024914
5098.9 5098.9 1.480000 2264.24 54.2576 0.391840 0.027771
5105.74 5105.74 1.510000 2290.98 55.5866 0.407362 0.030565
5112.74 5112.74 1.550000 2315.21 57.2927 0.427809 0.032047
5119.92 5119.92 1.590000 2334.88 58.9969 0.449815 0.033772
5127.27 5127.27 1.630000 2374.84 60.7373 0.471575 0.035584
5134.79 5134.79 1.660000 2388.88 62.1197 0.492456 0.037651
5142.49 5142.49 1.700000 2405.01 63.9206 0.517405 0.038780
5150.35 5150.35 1.740000 2423.33 66.0717 0.546654 0.040410
5158.39 5158.39 1.780000 2432.11 67.9486 0.577373 0.043391
5166.6 5166.6 1.810000 2431.43 69.4573 0.608151 0.046522
5174.98 5174.98 1.850000 2454.79 71.5372 0.640393 0.050296
5183.53 5183.53 1.890000 2467.92 73.4935 0.674008 0.054074
5192.25 5192.25 1.930000 2479.06 75.4518 0.710375 0.056869
5201.14 5201.14 1.960000 2488.88 77.0115 0.747981 0.060278
5210.21 5210.21 2.000000 2482.58 79.07 0.790649 0.063453
5219.45 5219.45 2.040000 2506.8 81.009 0.831630 0.067155
5228.85 5228.85 2.080000 2515.97 82.9366 0.875996 0.071726
5238.43 5238.43 2.110000 2536.1 84.5507 0.916798 0.075929
5248.18 5248.18 2.150000 2560.64 86.0329 0.957815 0.081037
5258.11 5258.11 2.190000 2588.04 88.5689 1.010185 0.086474
5268.2 5268.2 2.230000 2607.57 90.7444 1.064757 0.092267
5278.47 5278.47 2.260000 2617.78 91.3846 1.105373 0.096366
5288.9 5288.9 2.300000 2628.58 95.06 1.186509 0.103733
5299.51 5299.51 2.340000 2646.78 97.7307 1.254943 0.111238
5310.29 5310.29 2.380000 2676.16 100.061 1.321846 0.118298
5321.24 5321.24 2.410000 2687.68 102.039 1.390028 0.125887
5332.36 5332.36 2.450000 2705.61 104.099 1.462009 0.134465
5343.66 5343.66 2.490000 2718.17 106.294 1.539655 0.143853
5355.12 5355.12 2.530000 2734.54 107.476 1.608051 0.152322
5366.76 5366.76 2.560000 2757.44 110.192 1.698440 0.162304
5378.57 5378.57 2.600000 2774.24 111.937 1.778167 0.171850
5390.55 5390.55 2.640000 2803.99 113.565 1.858565 0.182178
5402.7 5402.7 2.680000 2831.69 114.757 1.934468 0.192027
5415.02 5415.02 2.710000 2856.79 115.067 1.998163 0.201230
5427.52 5427.52 2.750000 2882.57 115.436 2.065176 0.210710
5440.18 5440.18 2.790000 2909.81 115.874 2.133905 0.221036
5453.02 5453.02 2.830000 2942.97 116.954 2.219262 0.233733
5466.03 5466.03 2.860000 2963.09 117.467 2.295585 0.244428
5479.21 5479.21 2.900000 2999.26 118.37 2.384595 0.257524
5492.56 5492.56 2.940000 3026.83 119.545 2.480922 0.271061
5506.08 5506.08 2.980000 3055.34 120.982 2.590068 0.286948
5519.78 5519.78 3.010000 3079.42 122.583 2.706332 0.304170
5533.64 5533.64 3.050000 3108.05 124.732 2.839927 0.323596
5547.68 5547.68 3.090000 3148.27 127.331 2.990270 0.345627
5561.89 5561.89 3.130000 3173.9 130.091 3.152219 0.369150
5576.27 5576.27 3.160000 3196.6 132.435 3.311615 0.393589
5590.82 5590.82 3.200000 3243.76 135.25 3.489712 0.419825
5605.54 5605.54 3.240000 3272.44 138.518 3.689775 0.450691
5620.44 5620.44 3.280000 3298.54 141.87 3.901193 0.483647
5635.5 5635.5 3.310000 3331.84 143.228 4.064080 0.511258
5650.74 5650.74 3.350000 3360.85 145.726 4.269931 0.545213
5666.15 5666.15 3.390000 3397.9 148.669 4.498730 0.582740
5681.73 5681.73 3.430000 3432.03 152.042 4.746966 0.624250
5697.48 5697.48 3.460000 3463.39 154.272 4.960939 0.662091
5708.08 5708.08 3.490000 3496.21 156.187 5.098122 0.687475

File: Ti-K-Dy2TiO5.xdi
# XDI/1.0 BlueSky/1.5.0
# Beamline.name: 6BM
# Beamline.xray_source: NSLS-II three-pole wiggler
# Beamline.collimation: paraboloid mirror, 5 nm Rh on 30 nm Pt
# Beamline.focusing: not in use
# Beamline.harmonic_rejection: flat mirror, Si stripe, pitch = 7.0 mrad relative to beam
# Detector.i0: 10 cm N2
# Detector.i1: 25 cm N2
# Detector.i2: 25 cm N2
# Element.symbol: Ti
# Element.edge: K
# Facility.name: NSLS-II
# Facility.energy: 3.0
# Facility.current: 220.9
# Facility.mode: top-off
# Facility.gup: 301027
# Facility.saf: 304156
# Mono.name: Si(111)
# Mono.d_spacing: 3.13526
# Mono.encoder_resolution: 0.0000050 deg/ct
# Mono.angle_offset: 16.0571 deg
# Mono.scan_mode: pseudo channel cut
# Mono.scan_type: step
# Mono.direction: forward in energy
# Sample.name: Dy2TiO5
# Sample.prep: Powder in polyethylene glycol pellet
# Sample.x_position: -97.532 mm
# Sample.y_position: 117.543 mm
# Sample.wheel_position: -645.000 mm
# Scan.experimenters: Bruce Ravel, Martin Stennett
# Scan.edge_energy: 4966.0
# Scan.start_time: 2019-05-30T05:51:49
# Scan.end_time: 2019-05-30T06:34:29
# Scan.transient_id: 9797
# Scan.uid: 36538793-e70c-4f34-a315-29e40954a34b
# Scan.plot_hint: ln(I0/It)  --  ln($5/$6)
# Scan.sequence: merge of 3 scans
# Column.1: energy eV
# Column.2: requested_energy eV
# Column.3: measurement_time seconds
# Column.4: mutrans
# Column.5: i0
# Column.6: itrans
# Column.7: irefer
# /////
#  sample disk prepared by Martin
# -----
# energy   requested_energy   measurement_time   mutrans   i0   itrans   irefer
4765.99 4766 0.500000 3.814353 11.0193 0.243065 0.020090
4796.01 4796 0.500000 3.755212 11.6439 0.272414 0.022852
4826.01 4826 0.500000 3.679788 12.3161 0.310718 0.027077
4856 4856 0.500000 3.605855 12.9931 0.352944 0.032189
4886 4886 0.500000 3.535834 13.642 0.397451 0.037174
4916 4916 0.500000 3.465731 14.2373 0.444918 0.043413
4938 4938 0.500000 3.416946 14.6639 0.481159 0.048162
4943.99 4944 0.500000 3.402978 14.7695 0.491437 0.049563
4950.01 4950 0.500000 3.390071 14.8691 0.501183 0.050725
4956 4956 0.500000 3.376854 14.9611 0.510993 0.051969
4956.74 4956.75 0.500000 3.375645 14.968 0.511848 0.052147
4957.5 4957.5 0.500000 3.374096 14.976 0.512914 0.052079
4958.24 4958.25 0.500000 3.372247 15.0175 0.515289 0.052481
4959 4959 0.500000 3.370707 15.0294 0.516492 0.052410
4959.75 4959.75 0.500000 3.368827 15.036 0.517695 0.052579
4960.49 4960.5 0.500000 3.366833 15.0455 0.519049 0.052847
4961.25 4961.25 0.500000 3.365098 15.056 0.520318 0.052762
4962 4962 0.500000 3.363719 15.0709 0.521549 0.052674
4962.74 4962.75 0.500000 3.362337 15.0852 0.522763 0.052220
4963.5 4963.5 0.500000 3.361039 15.0969 0.523850 0.051419
4964.25 4964.25 0.500000 3.358715 15.1083 0.525459 0.048567
4965 4965 0.500000 3.358075 15.1183 0.526152 0.039587
4965.75 4965.75 0.500000 3.357503 15.1308 0.526887 0.036305
4966.5 4966.5 0.500000 3.356940 15.1369 0.527396 0.040186
4967.25 4967.25 0.500000 3.360398 15.1443 0.525831 0.041394
4968 4968 0.500000 3.365161 15.1554 0.523722 0.040061
4968.75 4968.75 0.500000 3.363805 15.162 0.524653 0.038066
4969.5 4969.5 0.500000 3.361313 15.1586 0.525849 0.036922
4970.25 4970.25 0.500000 3.356280 15.1715 0.528946 0.036482
4971 4971 0.500000 3.352801 15.2007 0.531817 0.036208
4971.75 4971.75 0.500000 3.351449 15.2167 0.533095 0.034925
4972.5 4972.5 0.500000 3.351798 15.2624 0.534510 0.033108
4973.25 4973.25 0.500000 3.352301 15.272 0.534576 0.030986
4974 4974 0.500000 3.351313 15.2794 0.535364 0.029426
4974.75 4974.75 0.500000 3.351827 15.2853 0.535295 0.027631
4975.5 4975.5 0.500000 3.352089 15.2854 0.535159 0.026107
4976.25 4976.25 0.500000 3.352700 15.281 0.534677 0.024786
4977 4977 0.500000 3.353051 15.2832 0.534569 0.023638
4977.75 4977.75 0.500000 3.354691 15.3268 0.535216 0.023021
4978.5 4978.5 0.500000 3.357233 15.3348 0.534136 0.022505
4979.25 4979.25 0.500000 3.360070 15.3335 0.532577 0.021847
4980 4980 0.500000 3.364872 15.3276 0.529818 0.021633
4980.75 4980.75 0.500000 3.372254 15.3216 0.525734 0.021363
4981.5 4981.5 0.500000 3.382315 15.3206 0.520404 0.021066
4982.25 4982.25 0.500000 3.395888 15.3267 0.513611 0.020517
4983 4983 0.500000 3.410275 15.334 0.506497 0.020187
4983.75 4983.75 0.500000 3.420343 15.3278 0.501246 0.019949
4984.5 4984.5 0.500000 3.423910 15.3262 0.499403 0.020020
4985.25 4985.25 0.500000 3.420807 15.3317 0.501128 0.020157
4986 4986 0.500000 3.413626 15.3343 0.504833 0.020676
4986.75 4986.75 0.500000 3.405687 15.3302 0.508712 0.021065
4987.5 4987.5 0.500000 3.399382 15.3627 0.513020 0.021496
4988.25 4988.25 0.500000 3.395469 15.3735 0.515394 0.021667
4989 4989 0.500000 3.393857 15.4034 0.517231 0.021651
4989.75 4989.75 0.500000 3.393594 15.4356 0.518446 0.021692
4990.5 4990.5 0.500000 3.394101 15.4745 0.519492 0.021546
4991.25 4991.25 0.500000 3.394218 15.506 0.520487 0.022150
4992 4992 0.500000 3.395152 15.5384 0.521087 0.021966
4992.75 4992.75 0.500000 3.396752 15.5581 0.520911 0.022156
4993.5 4993.5 0.500000 3.398115 15.5703 0.520611 0.022053
4994.25 4994.25 0.500000 3.399185 15.5864 0.520591 0.022108
4995 4995 0.500000 3.400299 15.5978 0.520394 0.021810
4995.75 4995.75 0.500000 3.399893 15.6074 0.520924 0.021423
4998.18 4998.18 0.730000 3.390303 22.8031 0.768420 0.030334
5001.58 5001.58 0.760000 3.376416 23.834 0.814393 0.031684
5005.17 5005.16 0.800000 3.366148 25.263 0.872134 0.034413
5008.91 5008.91 0.840000 3.351675 26.7059 0.935384 0.039704
5012.84 5012.83 0.880000 3.334053 28.2114 1.005688 0.044096
5016.94 5016.93 0.910000 3.324293 29.3349 1.055995 0.047570
5021.19 5021.19 0.950000 3.313211 30.8139 1.121604 0.051565
5025.64 5025.63 0.990000 3.301688 32.3094 1.189666 0.054837
5030.24 5030.24 1.030000 3.293547 33.8173 1.255363 0.056642
5035.01 5035.01 1.060000 3.284892 35.0137 1.311086 0.055865
5039.96 5039.97 1.100000 3.275560 36.5725 1.382277 0.057422
5045.09 5045.09 1.140000 3.268423 38.1913 1.453812 0.061876
5050.38 5050.38 1.180000 3.258862 39.7901 1.529220 0.069226
5055.84 5055.84 1.210000 3.248966 41.0747 1.594276 0.075787
5061.48 5061.48 1.250000 3.238160 42.7335 1.676697 0.080353
5067.29 5067.29 1.290000 3.226356 44.4175 1.763459 0.086549
5073.27 5073.27 1.330000 3.213098 46.2319 1.859987 0.092340
5079.42 5079.42 1.360000 3.198778 47.6177 1.943379 0.094297
5085.74 5085.74 1.400000 3.183420 49.3897 2.046884 0.094457
5092.23 5092.23 1.440000 3.168195 51.1992 2.154434 0.097774
5098.9 5098.9 1.480000 3.154084 53.0726 2.265021 0.110191
5105.74 5105.74 1.510000 3.140256 54.6011 2.362686 0.122436
5112.74 5112.74 1.550000 3.126551 56.5149 2.479240 0.129500
5119.92 5119.92 1.590000 3.112349 58.4627 2.601385 0.136860
5127.27 5127.27 1.630000 3.097773 60.4378 2.728741 0.145664
5134.79 5134.79 1.660000 3.082812 62.091 2.845654 0.153482
5142.49 5142.49 1.700000 3.068102 64.3227 2.991613 0.159082
5150.35 5150.35 1.740000 3.053409 66.4458 3.136094 0.164559
5158.39 5158.39 1.780000 3.037385 68.5957 3.289856 0.178164
5166.6 5166.6 1.810000 3.021358 70.3706 3.429524 0.190880
5174.98 5174.98 1.850000 3.004550 72.6846 3.602341 0.207348
5183.53 5183.53 1.890000 2.987486 74.9264 3.777352 0.221961
5192.25 5192.25 1.930000 2.970295 77.152 3.956983 0.234811
5201.14 5201.14 1.960000 2.953276 78.9352 4.117928 0.245493
5210.21 5210.21 2.000000 2.936125 81.437 4.321930 0.257780
5219.45 5219.45 2.040000 2.918757 83.7774 4.524047 0.273807
5228.85 5228.85 2.080000 2.901644 86.1998 4.735200 0.290910
5238.43 5238.43 2.110000 2.883901 88.2943 4.937082 0.309614
5248.18 5248.18 2.150000 2.866428 90.2105 5.133137 0.329984
5258.11 5258.11 2.190000 2.848252 93.323 5.407651 0.354909
5268.2 5268.2 2.230000 2.830223 96.0473 5.666764 0.376632
5278.47 5278.47 2.260000 2.811860 97.2345 5.843128 0.391454
5288.9 5288.9 2.300000 2.793311 101.248 6.198235 0.419847
5299.51 5299.51 2.340000 2.774075 103.926 6.485749 0.446967
5310.29 5310.29 2.380000 2.755445 106.743 6.786829 0.475302
5321.24 5321.24 2.410000 2.736722 108.983 7.060169 0.502615
5332.36 5332.36 2.450000 2.717682 111.332 7.350998 0.533113
5343.66 5343.66 2.490000 2.697850 114.119 7.685961 0.569002
5355.12 5355.12 2.530000 2.678398 115.587 7.937699 0.597749
5366.76 5366.76 2.560000 2.659064 118.774 8.315819 0.634105
5378.57 5378.57 2.600000 2.639306 120.973 8.638778 0.667564
5390.55 5390.55 2.640000 2.619634 123.019 8.959414 0.704725
5402.7 5402.7 2.680000 2.600118 124.923 9.277398 0.741839
5415.02 5415.02 2.710000 2.580216 126.334 9.570713 0.778723
5427.52 5427.52 2.750000 2.560409 128.01 9.891722 0.820182
5440.18 5440.18 2.790000 2.540292 130.219 10.2669 0.866771
5453.02 5453.02 2.830000 2.520432 132.622 10.666 0.915586
5466.03 5466.03 2.860000 2.500269 134.698 11.0538 0.963476
5479.21 5479.21 2.900000 2.479943 137.789 11.5396 1.022282
5492.56 5492.56 2.940000 2.459895 140.647 12.0174 1.082883
5506.08 5506.08 2.980000 2.439500 143.62 12.5243 1.147718
5519.78 5519.78 3.010000 2.419242 146.672 13.0522 1.216519
5533.64 5533.64 3.050000 2.398591 150.122 13.6379 1.293150
5547.68 5547.68 3.090000 2.378005 153.588 14.2431 1.373894
5561.89 5561.89 3.130000 2.357489 157.118 14.8724 1.458776
5576.27 5576.27 3.160000 2.336751 160.018 15.4643 1.542855
5590.82 5590.82 3.200000 2.316066 163.387 16.1199 1.635484
5605.54 5605.54 3.240000 2.295059 167.043 16.8305 1.736513
5620.44 5620.44 3.280000 2.274263 170.315 17.5208 1.839145
5635.5 5635.5 3.310000 2.253340 171.84 18.0515 1.929070
5650.74 5650.74 3.350000 2.232508 175.232 18.7952 2.043855
5666.15 5666.15 3.390000 2.211310 178.933 19.6034 2.168789
5681.73 5681.73 3.430000 2.190019 183.374 20.5223 2.310165
5697.48 5697.48 3.460000 2.168956 186.253 21.2882 2.437945
5708.08 5708.08 3.490000 2.154677 188.65 21.8722 2.534504