Folder: webxdiviewer/xdidata/Ti (part 7)

File: Ti-K-EuTiO3.xdi
# XDI/1.0 BlueSky/1.5.0
# Beamline.name: 6BM
# Beamline.xray_source: NSLS-II three-pole wiggler
# Beamline.collimation: paraboloid mirror, 5 nm Rh on 30 nm Pt
# Beamline.focusing: not in use
# Beamline.harmonic_rejection: flat mirror, Si stripe, pitch = 7.0 mrad relative to beam
# Detector.i0: 10 cm N2
# Detector.i1: 25 cm N2
# Detector.i2: 25 cm N2
# Element.symbol: Ti
# Element.edge: K
# Facility.name: NSLS-II
# Facility.energy: 3.0
# Facility.current: 219.7
# Facility.mode: top-off
# Facility.gup: 301027
# Facility.saf: 304156
# Mono.name: Si(111)
# Mono.d_spacing: 3.13532
# Mono.encoder_resolution: 0.0000050 deg/ct
# Mono.angle_offset: 16.0577 deg
# Mono.scan_mode: pseudo channel cut
# Mono.scan_type: step
# Mono.direction: forward in energy
# Sample.name: EuTiO3 perovskite
# Sample.prep: powder on tape
# Sample.x_position: -97.500 mm
# Sample.y_position: 115.250 mm
# Sample.wheel_position: 15.000 mm
# Scan.experimenters: Bruce Ravel
# Scan.edge_energy: 4966.0
# Scan.start_time: 2019-06-16T18:11:49
# Scan.end_time: 2019-06-16T20:38:50
# Scan.transient_id: 10630
# Scan.uid: 4e553338-dff6-46a6-ad8a-cdfee4f3e69d
# Scan.plot_hint: ln(I0/It)  --  ln($5/$6)
# Scan.sequence: merge of 9 scans
# Column.1: energy eV
# Column.2: requested_energy eV
# Column.3: measurement_time seconds
# Column.4: mutrans
# Column.5: i0
# Column.6: itrans
# Column.7: irefer
# /////
#  from Fatih Dogan, 1993
# -----
# energy   requested_energy   measurement_time   mutrans   i0   itrans   irefer
4765.99 4766 0.500000 2.835704 8.449051 0.495768 0.033460
4796.01 4796 0.500000 2.771439 9.081480 0.568244 0.040428
4826.01 4826 0.500000 2.708426 9.728670 0.648331 0.048500
4855.99 4856 0.500000 2.647162 10.3786 0.735327 0.057869
4886 4886 0.500000 2.587120 11.0535 0.831625 0.068754
4916 4916 0.500000 2.529040 11.7522 0.937070 0.081131
4938 4938 0.500000 2.487120 12.2592 1.019344 0.091203
4944 4944 0.500000 2.475838 12.4034 1.043026 0.094253
4950 4950 0.500000 2.464703 12.5235 1.064918 0.096718
4956 4956 0.500000 2.453638 12.6405 1.086831 0.099469
4956.74 4956.75 0.500000 2.452202 12.6532 1.089486 0.099721
4957.49 4957.5 0.500000 2.451121 12.6788 1.092871 0.099924
4958.24 4958.25 0.500000 2.449699 12.6914 1.095516 0.100187
4959 4959 0.500000 2.448238 12.7038 1.098187 0.100322
4959.75 4959.75 0.500000 2.446956 12.73 1.101864 0.100746
4960.49 4960.5 0.500000 2.445615 12.7436 1.104520 0.100836
4961.25 4961.25 0.500000 2.444138 12.759 1.107494 0.100923
4961.99 4962 0.500000 2.442937 12.7732 1.110059 0.100790
4962.75 4962.75 0.500000 2.441491 12.7901 1.113134 0.100194
4963.5 4963.5 0.500000 2.440364 12.8057 1.115745 0.098645
4964.25 4964.25 0.500000 2.439160 12.8306 1.119266 0.092625
4965 4965 0.500000 2.438030 12.855 1.122662 0.074832
4965.74 4965.75 0.500000 2.437231 12.87 1.124868 0.069367
4966.5 4966.5 0.500000 2.436908 12.8821 1.126288 0.076990
4967.25 4967.25 0.500000 2.438365 12.8897 1.125319 0.079454
4968 4968 0.500000 2.436309 12.904 1.128886 0.077139
4968.75 4968.75 0.500000 2.438627 12.9139 1.127133 0.072917
4969.5 4969.5 0.500000 2.441983 12.931 1.124847 0.070388
4970.25 4970.25 0.500000 2.438471 12.947 1.130201 0.069391
4971 4971 0.500000 2.438132 12.9825 1.133685 0.068620
4971.75 4971.75 0.500000 2.441228 13.0032 1.131967 0.065852
4972.5 4972.5 0.500000 2.445836 13.015 1.127806 0.061621
4973.25 4973.25 0.500000 2.447653 13.0269 1.126778 0.057544
4974 4974 0.500000 2.447084 13.0482 1.129265 0.054166
4974.75 4974.75 0.500000 2.444643 13.0561 1.132713 0.051276
4975.5 4975.5 0.500000 2.441401 13.0583 1.136577 0.048520
4976.25 4976.25 0.500000 2.439992 13.0626 1.138556 0.045945
4977 4977 0.500000 2.440419 13.0648 1.138259 0.043881
4977.75 4977.75 0.500000 2.442511 13.0724 1.136526 0.042349
4978.5 4978.5 0.500000 2.447772 13.095 1.132549 0.041108
4979.25 4979.25 0.500000 2.457346 13.0974 1.121937 0.040130
4980 4980 0.500000 2.470865 13.0932 1.106555 0.039063
4980.75 4980.75 0.500000 2.488174 13.0925 1.087502 0.038099
4981.5 4981.5 0.500000 2.511563 13.1088 1.063634 0.036833
4982.25 4982.25 0.500000 2.543362 13.119 1.031079 0.035302
4983 4983 0.500000 2.578748 13.1265 0.995828 0.033753
4983.75 4983.75 0.500000 2.601913 13.1301 0.973362 0.033032
4984.5 4984.5 0.500000 2.606023 13.1432 0.970338 0.033079
4985.25 4985.25 0.500000 2.599105 13.1522 0.977751 0.033716
4986 4986 0.500000 2.586829 13.1594 0.990383 0.034832
4986.75 4986.75 0.500000 2.572891 13.1564 1.004003 0.035882
4987.5 4987.5 0.500000 2.564135 13.1681 1.013760 0.036401
4988.25 4988.25 0.500000 2.560432 13.1813 1.018534 0.036745
4989 4989 0.500000 2.558402 13.21 1.022826 0.036869
4989.75 4989.75 0.500000 2.555613 13.2455 1.028437 0.037197
4990.5 4990.5 0.500000 2.555038 13.2829 1.031934 0.037444
4991.25 4991.25 0.500000 2.558928 13.3145 1.030376 0.037603
4992 4992 0.500000 2.565205 13.3519 1.026812 0.037510
4992.75 4992.75 0.500000 2.569275 13.3866 1.025292 0.037616
4993.5 4993.5 0.500000 2.569749 13.4044 1.026169 0.037572
4994.25 4994.25 0.500000 2.567649 13.4183 1.029402 0.037650
4995 4995 0.500000 2.563849 13.4305 1.034263 0.037513
4995.75 4995.75 0.500000 2.560446 13.459 1.039980 0.037086
4998.19 4998.18 0.730000 2.558962 19.6811 1.523034 0.051095
5001.59 5001.58 0.760000 2.547771 20.6085 1.612749 0.053630
5005.17 5005.16 0.800000 2.533843 21.8613 1.734774 0.059027
5008.92 5008.91 0.840000 2.504011 23.1339 1.891373 0.069766
5012.84 5012.83 0.880000 2.486514 24.4109 2.031005 0.077939
5016.93 5016.93 0.910000 2.469676 25.4065 2.149698 0.084829
5021.19 5021.19 0.950000 2.456932 26.7125 2.289202 0.092806
5025.64 5025.63 0.990000 2.451621 28.0536 2.416924 0.098226
5030.24 5030.24 1.030000 2.450367 29.3912 2.535333 0.100772
5035.01 5035.01 1.060000 2.441047 30.4653 2.652602 0.099226
5039.97 5039.97 1.100000 2.440825 31.8557 2.774283 0.101201
5045.09 5045.09 1.140000 2.433803 33.2933 2.919896 0.109774
5050.38 5050.38 1.180000 2.421432 34.7271 3.083569 0.124097
5055.83 5055.84 1.210000 2.422954 35.9016 3.183019 0.135319
5061.47 5061.48 1.250000 2.418063 37.4463 3.336224 0.143442
5067.28 5067.29 1.290000 2.395070 38.9905 3.554576 0.156635
5073.26 5073.27 1.330000 2.385287 40.6005 3.737780 0.167083
5079.41 5079.42 1.360000 2.377355 41.8741 3.885728 0.169237
5085.73 5085.74 1.400000 2.358338 43.4684 4.111118 0.170523
5092.23 5092.23 1.440000 2.341721 45.1511 4.341840 0.177013
5098.9 5098.9 1.480000 2.329419 46.8083 4.556910 0.200240
5105.74 5105.74 1.510000 2.316388 48.1676 4.750720 0.223493
5112.74 5112.74 1.550000 2.305438 49.9087 4.976663 0.236657
5119.92 5119.92 1.590000 2.295692 51.6701 5.202734 0.249408
5127.27 5127.27 1.630000 2.288769 53.4104 5.415364 0.264330
5134.79 5134.79 1.660000 2.277348 54.8288 5.623008 0.277291
5142.49 5142.49 1.700000 2.258145 56.6605 5.923494 0.288389
5150.35 5150.35 1.740000 2.244922 58.423 6.189093 0.298590
5158.39 5158.39 1.780000 2.232075 60.2282 6.462858 0.322194
5166.6 5166.6 1.810000 2.220318 61.6154 6.689862 0.344111
5174.98 5174.98 1.850000 2.205991 63.3349 6.975777 0.371490
5183.53 5183.53 1.890000 2.189337 65.0615 7.286308 0.397256
5192.25 5192.25 1.930000 2.173174 66.764 7.598793 0.418484
5201.14 5201.14 1.960000 2.156766 68.1555 7.885538 0.437267
5210.21 5210.21 2.000000 2.142303 69.8938 8.204435 0.456044
5219.45 5219.45 2.040000 2.128870 71.6004 8.518412 0.480641
5228.85 5228.85 2.080000 2.116970 73.3278 8.828351 0.507041
5238.43 5238.43 2.110000 2.101889 74.8781 9.152040 0.537294
5248.18 5248.18 2.150000 2.082632 76.1858 9.492839 0.571793
5258.11 5258.11 2.190000 2.067279 78.5552 9.939566 0.612521
5268.2 5268.2 2.230000 2.053011 80.4896 10.3307 0.646263
5278.47 5278.47 2.260000 2.038948 81.2699 10.5785 0.667813
5288.9 5288.9 2.300000 2.023800 84.2001 11.1272 0.710912
5299.51 5299.51 2.340000 2.006124 86.2872 11.6064 0.755354
5310.29 5310.29 2.380000 1.988463 88.063 12.0563 0.797871
5321.24 5321.24 2.410000 1.971582 89.7204 12.4923 0.841905
5332.36 5332.36 2.450000 1.955328 91.6428 12.9691 0.891604
5343.66 5343.66 2.490000 1.940217 93.7943 13.4756 0.946873
5355.12 5355.12 2.530000 1.924908 95.4501 13.9251 0.996339
5366.76 5366.76 2.560000 1.907410 97.8871 14.5328 1.053427
5378.57 5378.57 2.600000 1.889557 100.334 15.1644 1.115311
5390.55 5390.55 2.640000 1.871953 102.983 15.8412 1.186089
5402.7 5402.7 2.680000 1.855780 105.504 16.4935 1.257200
5415.02 5415.02 2.710000 1.839773 107.763 17.1184 1.329082
5427.52 5427.52 2.750000 1.822947 110.205 17.8034 1.408774
5440.18 5440.18 2.790000 1.805582 112.96 18.5681 1.497397
5453.02 5453.02 2.830000 1.787632 115.593 19.3453 1.586895
5466.03 5466.03 2.860000 1.769857 117.571 20.0291 1.670382
5479.21 5479.21 2.900000 1.752405 119.793 20.7668 1.762005
5492.56 5492.56 2.940000 1.735961 121.703 21.4478 1.851536
5506.08 5506.08 2.980000 1.718849 123.143 22.0761 1.939851
5519.78 5519.78 3.010000 1.701321 123.884 22.6017 2.021561
5533.64 5533.64 3.050000 1.683615 124.787 23.173 2.110584
5547.68 5547.68 3.090000 1.665408 125.291 23.6941 2.197291
5561.89 5561.89 3.130000 1.647936 125.699 24.1903 2.282960
5576.27 5576.27 3.160000 1.630373 125.638 24.6071 2.363708
5590.82 5590.82 3.200000 1.612625 126.034 25.1265 2.456500
5605.54 5605.54 3.240000 1.594678 126.873 25.7518 2.561979
5620.44 5620.44 3.280000 1.576673 127.62 26.374 2.671294
5635.5 5635.5 3.310000 1.558477 127.617 26.8578 2.770797
5650.74 5650.74 3.350000 1.540659 129.186 27.6768 2.907448
5666.15 5666.15 3.390000 1.522902 131.515 28.6805 3.067178
5681.73 5681.73 3.430000 1.505170 134.317 29.8155 3.245684
5697.48 5697.48 3.460000 1.487242 136.524 30.8538 3.419068
5713.4 5713.4 3.500000 1.469316 139.047 31.9923 3.609310
5729.5 5729.5 3.540000 1.451627 141.448 33.1257 3.804258
5745.77 5745.77 3.580000 1.433786 143.806 34.2839 4.008345
5762.2 5762.2 3.610000 1.415985 146.088 35.4537 4.220210
5778.81 5778.81 3.650000 1.398194 148.401 36.6615 4.442969
5795.59 5795.59 3.690000 1.380502 150.697 37.8931 4.674967
5812.54 5812.54 3.730000 1.362726 152.594 39.0583 4.905492
5818.23 5818.23 3.740000 1.356805 153.088 39.4173 4.980231

File: Ti-K-Fe2TiO5.xdi
# XDI/1.0 BlueSky/1.5.0
# Beamline.name: 6BM
# Beamline.xray_source: NSLS-II three-pole wiggler
# Beamline.collimation: paraboloid mirror, 5 nm Rh on 30 nm Pt
# Beamline.focusing: not in use
# Beamline.harmonic_rejection: flat mirror, Si stripe, pitch = 7.0 mrad relative to beam
# Detector.i0: 10 cm N2
# Detector.i1: 25 cm N2
# Detector.i2: 25 cm N2
# Element.symbol: Ti
# Element.edge: K
# Facility.name: NSLS-II
# Facility.energy: 3.0
# Facility.current: 220.4
# Facility.mode: top-off
# Facility.gup: 301027
# Facility.saf: 304156
# Mono.name: Si(111)
# Mono.d_spacing: 3.13526
# Mono.encoder_resolution: 0.0000050 deg/ct
# Mono.angle_offset: 16.0571 deg
# Mono.scan_mode: pseudo channel cut
# Mono.scan_type: step
# Mono.direction: forward in energy
# Sample.name: Fe2TiO5
# Sample.prep: Powder in polyethylene glycol pellet
# Sample.x_position: -97.532 mm
# Sample.y_position: 117.543 mm
# Sample.wheel_position: -600.000 mm
# Scan.experimenters: Bruce Ravel, Martin Stennett
# Scan.edge_energy: 4966.0
# Scan.start_time: 2019-05-30T03:41:45
# Scan.end_time: 2019-05-30T04:24:42
# Scan.transient_id: 9788
# Scan.uid: d9aa5281-2d45-470e-9237-65acae46ec2d
# Scan.plot_hint: ln(I0/It)  --  ln($5/$6)
# Scan.sequence: merge of 3 scans
# Column.1: energy eV
# Column.2: requested_energy eV
# Column.3: measurement_time seconds
# Column.4: mutrans
# Column.5: i0
# Column.6: itrans
# Column.7: irefer
# /////
#  sample disk prepared by Martin
# -----
# energy   requested_energy   measurement_time   mutrans   i0   itrans   irefer
4765.99 4766 0.500000 3.535705 10.9975 0.320446 0.025681
4796.01 4796 0.500000 3.462394 11.6986 0.366805 0.030527
4826.01 4826 0.500000 3.391243 12.3587 0.416083 0.035833
4856 4856 0.500000 3.320828 13.0408 0.471062 0.041864
4886 4886 0.500000 3.251408 13.6973 0.530356 0.049272
4916 4916 0.500000 3.183258 14.3039 0.592905 0.057282
4938 4938 0.500000 3.134314 14.7333 0.641337 0.063511
4944 4944 0.500000 3.120884 14.8407 0.654740 0.065310
4950.01 4950 0.500000 3.107481 14.9419 0.668104 0.067540
4956 4956 0.500000 3.095225 15.0339 0.680507 0.068500
4956.74 4956.75 0.500000 3.093685 15.0394 0.681807 0.068831
4957.49 4957.5 0.500000 3.092611 15.0486 0.682958 0.069043
4958.24 4958.25 0.500000 3.091025 15.0608 0.684593 0.069197
4959 4959 0.500000 3.089625 15.0695 0.685952 0.068990
4959.75 4959.75 0.500000 3.088344 15.082 0.687398 0.069288
4960.49 4960.5 0.500000 3.087227 15.0934 0.688688 0.069436
4961.24 4961.25 0.500000 3.085533 15.1059 0.690427 0.069363
4962 4962 0.500000 3.084240 15.1184 0.691893 0.069495
4962.74 4962.75 0.500000 3.083516 15.1318 0.693007 0.068825
4963.5 4963.5 0.500000 3.082793 15.1458 0.694150 0.067710
4964.25 4964.25 0.500000 3.082037 15.1592 0.695288 0.063389
4965 4965 0.500000 3.081729 15.1979 0.697282 0.051549
4965.75 4965.75 0.500000 3.083795 15.2161 0.696673 0.047566
4966.5 4966.5 0.500000 3.093844 15.2235 0.690062 0.052259
4967.25 4967.25 0.500000 3.125508 15.231 0.668851 0.052490
4968 4968 0.500000 3.129934 15.2432 0.666439 0.050616
4968.75 4968.75 0.500000 3.155040 15.2525 0.650327 0.046936
4969.5 4969.5 0.500000 3.180406 15.2567 0.634204 0.044137
4970.25 4970.25 0.500000 3.155130 15.2694 0.650965 0.044345
4971 4971 0.500000 3.130711 15.2989 0.668390 0.044972
4971.75 4971.75 0.500000 3.114109 15.3185 0.680421 0.044187
4972.5 4972.5 0.500000 3.110760 15.3314 0.683275 0.041765
4973.25 4973.25 0.500000 3.110251 15.3357 0.683818 0.039044
4974 4974 0.500000 3.112326 15.3814 0.684433 0.036959
4974.75 4974.75 0.500000 3.123119 15.3865 0.677298 0.034466
4975.5 4975.5 0.500000 3.139834 15.3859 0.666089 0.032130
4976.25 4976.25 0.500000 3.163803 15.4192 0.651691 0.029559
4977 4977 0.500000 3.193028 15.4204 0.632955 0.028131
4977.75 4977.75 0.500000 3.218036 15.4233 0.617480 0.026214
4978.5 4978.5 0.500000 3.237889 15.4393 0.605915 0.025281
4979.25 4979.25 0.500000 3.260163 15.4376 0.592534 0.024811
4980 4980 0.500000 3.291036 15.4304 0.574225 0.023514
4980.75 4980.75 0.500000 3.332430 15.4218 0.550721 0.022270
4981.5 4981.5 0.500000 3.379991 15.424 0.525118 0.021403
4982.25 4982.25 0.500000 3.428615 15.432 0.500452 0.020005
4983 4983 0.500000 3.471506 15.4366 0.479654 0.019255
4983.75 4983.75 0.500000 3.507349 15.4323 0.462599 0.018500
4984.5 4984.5 0.500000 3.535688 15.4286 0.449584 0.018202
4985.25 4985.25 0.500000 3.552942 15.4355 0.442078 0.018362
4986 4986 0.500000 3.557766 15.435 0.439936 0.018290
4986.75 4986.75 0.500000 3.549860 15.4328 0.443357 0.018694
4987.5 4987.5 0.500000 3.534453 15.427 0.450076 0.019227
4988.25 4988.25 0.500000 3.517117 15.4376 0.458257 0.019537
4989 4989 0.500000 3.503616 15.4627 0.465261 0.019754
4989.75 4989.75 0.500000 3.496746 15.5009 0.469612 0.019923
4990.5 4990.5 0.500000 3.493631 15.5373 0.472183 0.020246
4991.25 4991.25 0.500000 3.491592 15.5699 0.474140 0.020265
4992 4992 0.500000 3.490199 15.5951 0.475568 0.020165
4992.75 4992.75 0.500000 3.488901 15.6168 0.476846 0.020646
4993.5 4993.5 0.500000 3.488128 15.6284 0.477577 0.020362
4994.25 4994.25 0.500000 3.488687 15.6415 0.477708 0.020273
4995 4995 0.500000 3.490923 15.6715 0.477555 0.020453
4995.75 4995.75 0.500000 3.495770 15.699 0.476079 0.019843
4998.19 4998.18 0.730000 3.505626 22.9085 0.687899 0.027270
5001.59 5001.58 0.760000 3.488798 23.9399 0.731074 0.028654
5005.17 5005.16 0.800000 3.451288 25.3677 0.804272 0.032310
5008.91 5008.91 0.840000 3.413953 26.8227 0.882746 0.037832
5012.83 5012.83 0.880000 3.379062 28.2651 0.963253 0.042355
5016.94 5016.93 0.910000 3.364772 29.3846 1.015824 0.046145
5021.2 5021.19 0.950000 3.351084 30.931 1.084022 0.050130
5025.64 5025.63 0.990000 3.339678 32.4995 1.152054 0.053422
5030.24 5030.24 1.030000 3.336552 34.0102 1.209380 0.054786
5035.01 5035.01 1.060000 3.335000 35.2123 1.254073 0.053749
5039.96 5039.97 1.100000 3.328413 36.7608 1.317848 0.054893
5045.09 5045.09 1.140000 3.313006 38.3389 1.395796 0.059832
5050.38 5050.38 1.180000 3.308265 39.9364 1.460857 0.066592
5055.83 5055.84 1.210000 3.310773 41.221 1.504071 0.072281
5061.48 5061.48 1.250000 3.306871 42.8839 1.570864 0.075893
5067.29 5067.29 1.290000 3.294190 44.5839 1.653983 0.081902
5073.27 5073.27 1.330000 3.279615 46.3045 1.743042 0.087279
5079.42 5079.42 1.360000 3.256136 47.7044 1.838385 0.089773
5085.74 5085.74 1.400000 3.233348 49.4761 1.950605 0.090619
5092.23 5092.23 1.440000 3.210892 51.2959 2.068301 0.093863
5098.9 5098.9 1.480000 3.193727 53.1719 2.181042 0.106579
5105.74 5105.74 1.510000 3.188708 54.7011 2.255062 0.117615
5112.74 5112.74 1.550000 3.180337 56.7468 2.359051 0.123681
5119.92 5119.92 1.590000 3.163694 58.6912 2.480849 0.131070
5127.27 5127.27 1.630000 3.146224 60.6717 2.609731 0.139914
5134.79 5134.79 1.660000 3.130177 62.3306 2.724485 0.147228
5142.49 5142.49 1.700000 3.116279 64.5641 2.861596 0.152694
5150.35 5150.35 1.740000 3.101272 66.7811 3.004602 0.158566
5158.39 5158.39 1.780000 3.085108 69.0049 3.155254 0.171404
5166.6 5166.6 1.810000 3.070882 70.7936 3.283431 0.183760
5174.98 5174.98 1.850000 3.054215 72.9569 3.440628 0.199062
5183.53 5183.53 1.890000 3.037640 75.1981 3.605602 0.212913
5192.25 5192.25 1.930000 3.016782 77.4261 3.790672 0.225745
5201.14 5201.14 1.960000 2.996635 79.2198 3.957426 0.236680
5210.21 5210.21 2.000000 2.977691 81.5317 4.150780 0.248638
5219.45 5219.45 2.040000 2.962928 83.8649 4.333084 0.262949
5228.85 5228.85 2.080000 2.944842 86.274 4.538914 0.279949
5238.43 5238.43 2.110000 2.928134 88.3569 4.726804 0.297558
5248.18 5248.18 2.150000 2.915703 90.2623 4.889151 0.315209
5258.11 5258.11 2.190000 2.895143 93.6121 5.175934 0.340581
5268.2 5268.2 2.230000 2.875468 96.3448 5.432855 0.362391
5278.47 5278.47 2.260000 2.855342 97.5595 5.613216 0.377472
5288.9 5288.9 2.300000 2.836622 101.539 5.952560 0.404171
5299.51 5299.51 2.340000 2.818617 104.466 6.235407 0.430662
5310.29 5310.29 2.380000 2.801358 107.314 6.516940 0.457555
5321.24 5321.24 2.410000 2.781604 109.44 6.778639 0.483397
5332.36 5332.36 2.450000 2.761400 111.669 7.057858 0.513591
5343.66 5343.66 2.490000 2.740008 114.468 7.391161 0.548782
5355.12 5355.12 2.530000 2.719076 115.96 7.645874 0.577536
5366.76 5366.76 2.560000 2.698653 118.83 7.996802 0.611462
5378.57 5378.57 2.600000 2.678964 120.98 8.303367 0.642865
5390.55 5390.55 2.640000 2.660147 122.989 8.601627 0.677865
5402.7 5402.7 2.680000 2.640376 124.838 8.905223 0.713821
5415.02 5415.02 2.710000 2.619289 126.473 9.214135 0.751918
5427.52 5427.52 2.750000 2.597738 128.059 9.532926 0.792171
5440.18 5440.18 2.790000 2.576461 130.294 9.907880 0.838355
5453.02 5453.02 2.830000 2.555708 132.745 10.306 0.886849
5466.03 5466.03 2.860000 2.535271 134.788 10.6807 0.933368
5479.21 5479.21 2.900000 2.514748 137.494 11.121 0.987428
5492.56 5492.56 2.940000 2.493662 140.266 11.587 1.045674
5506.08 5506.08 2.980000 2.472103 143.156 12.0834 1.109324
5519.78 5519.78 3.010000 2.450211 145.716 12.5717 1.173696
5533.64 5533.64 3.050000 2.428430 148.979 13.1362 1.248640
5547.68 5547.68 3.090000 2.407163 152.221 13.7106 1.325835
5561.89 5561.89 3.130000 2.386596 155.551 14.3017 1.405607
5576.27 5576.27 3.160000 2.365895 158.658 14.8925 1.488479
5590.82 5590.82 3.200000 2.344895 162.264 15.5542 1.581264
5605.54 5605.54 3.240000 2.323570 165.671 16.2231 1.677255
5620.44 5620.44 3.280000 2.302618 169.063 16.9057 1.778288
5635.5 5635.5 3.310000 2.280595 170.475 17.4265 1.866127
5650.74 5650.74 3.350000 2.260391 173.502 18.098 1.971969
5666.15 5666.15 3.390000 2.239847 177.061 18.8525 2.089923
5681.73 5681.73 3.430000 2.219165 181.18 19.6943 2.221290
5697.48 5697.48 3.460000 2.198183 184.019 20.427 2.344376
5708.08 5708.08 3.490000 2.183987 186.323 20.9784 2.434605