Folder: webxdiviewer/xdidata/Ti (part 15)

File: Ti-K-TitaniumFoil.xdi
# XDI/1.0 BlueSky/1.10.0 BMM/2023-1.0-py310-tiled
# Beamline.name: BMM (06BM) -- Beamline for Materials Measurement (NIST)
# Beamline.xray_source: NSLS-II three-pole wiggler
# Beamline.collimation: paraboloid mirror, 5 nm Rh on 30 nm Pt
# Beamline.focusing: not in use
# Beamline.harmonic_rejection: flat mirror, Si stripe, pitch = 7.0 mrad relative to beam
# Beamline.software: Bluesky 1.10.0, Ophyd 1.7.0, DataBroker 2.0.0b13, Python 3.10.8, 2023-1.0-py310-tiled
# Detector.I0: 10 cm N2
# Detector.I1: 25 cm N2
# Detector.I2: 25 cm N2
# Element.symbol: Ti
# Element.edge: K
# Element.reference: Ti
# Element.reference_material: Ti foil
# Facility.name: NSLS-II
# Facility.energy: 3.0
# Facility.current: 400.3
# Facility.mode: top-off
# Facility.GUP: 301027
# Facility.SAF: 310583
# Facility.cycle: 2023-2
# Mono.name: Si(111)
# Mono.d_spacing: 3.13519
# Mono.encoder_resolution: 0.0000050 deg/ct
# Mono.angle_offset: 16.0754 deg
# Mono.scan_mode: pseudo channel cut
# Mono.scan_type: step
# Mono.direction: forward in energy
# Sample.name: Ti foil
# Sample.prep: reference foil
# Sample.x: 109.138 mm
# Sample.y: 153.150 mm
# Sample.SDD_position: 205.000 mm
# Scan.experimenters: Bruce Ravel
# Scan.edge_energy: 4966.4
# Scan.start_time: 2023-05-28T10:45:17
# Scan.end_time: 2023-05-28T10:53:20
# Scan.transient_id: 78609
# Scan.uid: 326d4dd8-c810-4d41-931a-3abae9d4b2f6
# Scan.plot_hint: ln(It/Ir)  --  ln($6/$7)
# Column.1: energy eV
# Column.2: requested_energy eV
# Column.3: measurement_time seconds
# Column.4: xmu
# Column.5: I0 nA
# Column.6: It nA
# Column.7: Ir nA
# ///////////
# standard reference foil
# -----------
# energy  requested_energy  measurement_time  xmu  I0  It  Ir
  4766.411  4766.400  0.500  3.399720  66.2294  13.1674  0.439562
  4796.408  4796.400  0.500  3.336215  69.158  14.336  0.509950
  4826.407  4826.400  0.500  3.274559  72.0055  15.5563  0.588550
  4856.406  4856.400  0.500  3.213834  74.7483  16.8182  0.676127
  4886.406  4886.400  0.500  3.155519  77.4166  18.1211  0.772254
  4916.404  4916.400  0.500  3.098169  80.0324  19.4566  0.878108
  4938.401  4938.400  0.500  3.059302  81.9293  20.4739  0.960644
  4944.403  4944.400  0.500  3.049505  82.4096  20.7436  0.982882
  4950.401  4950.400  0.500  3.041015  82.9277  21.0295  1.004922
  4956.402  4956.400  0.500  3.036172  83.4362  21.3266  1.024070
  4957.293  4957.300  0.500  3.036072  83.4954  21.3646  1.025993
  4958.193  4958.200  0.500  3.037041  83.5701  21.4056  1.026971
  4959.092  4959.100  0.500  3.037611  83.6346  21.4518  1.028599
  4959.995  4960.000  0.500  3.039502  83.6883  21.4704  1.027544
  4960.893  4960.900  0.500  3.043581  83.7372  21.512  1.025346
  4961.796  4961.800  0.500  3.049556  83.821  21.5699  1.021980
  4962.696  4962.700  0.500  3.061892  83.8833  21.618  1.011700
  4963.596  4963.600  0.500  3.089359  83.9252  21.6432  0.985439
  4964.497  4964.500  0.500  3.189778  83.9968  21.6869  0.893087
  4965.397  4965.400  0.500  3.633147  84.0539  21.7298  0.574380
  4966.300  4966.300  0.500  3.775473  84.1141  21.7684  0.499068
  4967.199  4967.200  0.500  3.564488  84.1498  21.7992  0.617168
  4968.101  4968.100  0.500  3.570507  84.2353  21.8423  0.614677
  4969.000  4969.000  0.500  3.686545  84.3051  21.8793  0.548261
  4969.901  4969.900  0.500  3.780474  84.3721  21.9319  0.500307
  4970.802  4970.800  0.500  3.819128  84.4269  21.9598  0.481950
  4971.698  4971.700  0.500  3.868172  84.5098  21.9984  0.459690
  4972.602  4972.600  0.500  3.990081  84.5754  22.041  0.407719
  4973.501  4973.500  0.500  4.142323  84.6322  22.087  0.350872
  4974.404  4974.400  0.500  4.286318  84.6977  22.147  0.304642
  4975.304  4975.300  0.500  4.422254  84.9964  22.2275  0.266889
  4976.203  4976.200  0.500  4.558048  85.0858  22.2799  0.233549
  4977.104  4977.100  0.500  4.680528  85.1192  22.29  0.206720
  4978.000  4978.000  0.500  4.768939  85.1883  22.3442  0.189689
  4978.902  4978.900  0.500  4.830778  85.2494  22.4012  0.178769
  4979.800  4979.800  0.500  4.868457  85.2937  22.4385  0.172445
  4980.703  4980.700  0.500  4.894485  85.3444  22.4906  0.168404
  4981.600  4981.600  0.500  4.914583  85.4125  22.5174  0.165250
  4982.503  4982.500  0.500  4.940775  85.4504  22.5469  0.161189
  4983.400  4983.400  0.500  4.963815  85.5249  22.5884  0.157807
  4984.301  4984.300  0.500  4.964249  85.548  22.6392  0.158094
  4985.199  4985.200  0.500  4.940954  85.6507  22.6833  0.162135
  4986.101  4986.100  0.500  4.903155  85.6995  22.7232  0.168677
  4987.003  4987.000  0.500  4.871324  85.7498  22.7323  0.174202
  4987.901  4987.900  0.500  4.854445  85.8103  22.7883  0.177605
  4988.804  4988.800  0.500  4.848264  85.8705  22.8372  0.179089
  4989.701  4989.700  0.500  4.844845  85.9419  22.8729  0.179983
  4990.604  4990.600  0.500  4.839808  86.0073  22.9113  0.181196
  4991.400  4991.400  0.500  4.833274  86.0576  22.9553  0.182733
  4994.428  4994.410  0.500  4.822463  86.2663  23.1033  0.185911
  4997.599  4997.600  0.500  4.947996  86.4941  23.2139  0.164763
  5000.968  5000.960  0.500  5.025826  86.7422  23.3787  0.153508
  5004.489  5004.480  0.500  4.996960  87.0013  23.5709  0.159303
  5008.187  5008.180  0.500  4.872309  87.2801  23.7497  0.181820
  5012.058  5012.050  0.500  4.772417  87.5529  23.9353  0.202491
  5016.106  5016.100  0.500  4.724300  87.8131  24.1178  0.214092
  5020.315  5020.310  0.500  4.673122  88.0948  24.3215  0.227237
  5024.697  5024.690  0.500  4.653702  88.3641  24.5191  0.233575
  5029.258  5029.250  0.500  4.684207  88.713  24.7286  0.228494
  5033.988  5033.980  0.500  4.792961  89.0005  24.9771  0.207007
  5038.897  5038.880  0.500  4.883809  89.3143  25.1903  0.190643
  5043.960  5043.950  0.500  4.853818  89.6688  25.4154  0.198203
  5049.204  5049.190  0.500  4.745322  90.0559  25.7045  0.223430
  5054.620  5054.610  0.500  4.621778  90.3856  25.9335  0.255064
  5060.202  5060.190  0.500  4.591575  90.7318  26.1871  0.265455
  5065.943  5065.950  0.500  4.559179  91.141  26.5195  0.277676
  5071.900  5071.880  0.500  4.524568  91.5274  26.7869  0.290354
  5077.990  5077.980  0.500  4.553709  91.9268  27.096  0.285269
  5084.253  5084.250  0.500  4.649566  92.297  27.3937  0.262041
  5090.697  5090.690  0.500  4.726538  92.6768  27.7133  0.245459
  5097.309  5097.300  0.500  4.635430  93.0604  28.0132  0.271782
  5104.104  5104.090  0.500  4.478309  93.4269  28.3466  0.321807
  5111.060  5111.050  0.500  4.444672  93.8138  28.6762  0.336686
  5118.177  5118.170  0.500  4.436601  94.2093  29.029  0.343591
  5125.473  5125.470  0.500  4.414765  94.6086  29.374  0.355348
  5132.965  5132.950  0.500  4.392756  94.9501  29.7257  0.367606
  5140.595  5140.590  0.500  4.413318  95.3528  30.075  0.364356
  5148.406  5148.400  0.500  4.448185  95.6676  30.4408  0.356150
  5156.395  5156.390  0.500  4.414013  96.0156  30.8119  0.373024
  5164.557  5164.550  0.500  4.353756  96.317  31.1804  0.400930
  5172.877  5172.870  0.500  4.298888  96.8726  31.623  0.429556
  5181.380  5181.370  0.500  4.248980  97.1237  31.9702  0.456495
  5190.051  5190.050  0.500  4.233050  97.3669  32.352  0.469366
  5198.896  5198.890  0.500  4.225668  97.5373  32.7044  0.477994
  5207.908  5207.900  0.500  4.227472  97.7695  33.1052  0.482979
  5217.098  5217.090  0.500  4.216606  97.9878  33.4622  0.493522
  5226.475  5226.450  0.500  4.187358  98.2327  33.8864  0.514612
  5235.998  5235.970  0.500  4.157642  98.4899  34.2785  0.536266
  5245.659  5245.670  0.500  4.116180  98.6744  34.6571  0.565142
  5255.549  5255.550  0.500  4.076532  98.9101  35.0907  0.595356
  5265.578  5265.590  0.500  4.050902  99.1011  35.4911  0.617781
  5275.794  5275.800  0.500  4.040104  99.3308  35.936  0.632317
  5286.179  5286.190  0.500  4.028339  99.1764  36.2065  0.644617
  5296.736  5296.750  0.500  4.003813  99.1942  36.5849  0.667526
  5307.470  5307.480  0.500  3.977518  99.1236  36.9483  0.692119
  5318.369  5318.380  0.500  3.951604  98.8828  37.2394  0.715885
  5329.436  5329.450  0.500  3.922779  98.5444  37.509  0.742155
  5340.679  5340.690  0.500  3.889831  98.0252  37.6739  0.770386
  5352.102  5352.110  0.500  3.860159  97.3786  37.8271  0.796815
  5363.679  5363.690  0.500  3.840556  96.6006  37.9207  0.814600
  5375.442  5375.450  0.500  3.823596  95.8569  37.9858  0.829955
  5387.369  5387.380  0.500  3.798705  95.007  38.0934  0.853284
  5399.466  5399.480  0.500  3.772293  94.1606  38.1169  0.876662
  5411.733  5411.750  0.500  3.745196  93.2674  38.192  0.902514
  5424.177  5424.190  0.500  3.718138  92.7293  38.3752  0.931717
  5436.801  5436.810  0.500  3.689771  92.1934  38.5515  0.962928
  5449.576  5449.590  0.500  3.664018  91.7175  38.7591  0.993370
  5462.534  5462.550  0.500  3.640370  91.2743  39.0395  1.024498
  5475.669  5475.680  0.500  3.616655  90.9132  39.3107  1.056374
  5488.961  5488.980  0.500  3.592341  90.4937  39.5539  1.089068
  5502.429  5502.450  0.500  3.567012  90.0688  39.7838  1.123499
  5516.087  5516.100  0.500  3.541691  89.6535  40.0739  1.160714
  5529.892  5529.910  0.500  3.515526  89.3141  40.3614  1.200030
  5543.892  5543.900  0.500  3.488894  88.9558  40.6278  1.240555
  5558.049  5558.060  0.500  3.464343  88.6419  40.9573  1.281700
  5572.380  5572.390  0.500  3.439231  88.3723  41.2705  1.324344
  5586.877  5586.890  0.500  3.413899  88.1276  41.6035  1.369282
  5601.561  5601.560  0.500  3.389038  87.7777  41.9125  1.414176
  5616.389  5616.400  0.500  3.363839  87.4584  42.2317  1.461307
  5631.406  5631.420  0.500  3.337367  87.0033  42.497  1.509936
  5646.589  5646.600  0.500  3.310905  86.5037  42.7235  1.558689
  5661.952  5661.960  0.500  3.284798  85.9041  42.8839  1.605923
  5677.482  5677.490  0.500  3.258891  85.2676  43.07  1.655224
  5693.180  5693.190  0.500  3.233063  84.4946  43.15  1.701686
  5709.047  5709.060  0.500  3.207329  83.7456  43.2692  1.750868
  5725.097  5725.110  0.500  3.181908  83.015  43.3789  1.800499
  5741.314  5741.320  0.500  3.156214  82.2505  43.4619  1.850897
  5757.693  5757.710  0.500  3.130007  81.6105  43.6176  1.906853
  5774.257  5774.270  0.500  3.104135  81.0222  43.774  1.963847
  5790.983  5791.000  0.500  3.077892  80.3917  43.9051  2.022105
  5807.889  5807.900  0.500  3.052113  79.7446  44.0677  2.082595
  5819.242  5819.260  0.500  3.035129  79.3232  44.1393  2.121709