Folder: webxdiviewer/xdidata/Ti (part 3)

File: Ti-K-CaCe2Ti4O12.xdi
# XDI/1.0 BlueSky/1.5.0
# Beamline.name: 6BM
# Beamline.xray_source: NSLS-II three-pole wiggler
# Beamline.collimation: paraboloid mirror, 5 nm Rh on 30 nm Pt
# Beamline.focusing: not in use
# Beamline.harmonic_rejection: flat mirror, Si stripe, pitch = 7.0 mrad relative to beam
# Detector.i0: 10 cm N2
# Detector.i1: 25 cm N2
# Detector.i2: 25 cm N2
# Element.symbol: Ti
# Element.edge: K
# Facility.name: NSLS-II
# Facility.energy: 3.0
# Facility.current: 219.4
# Facility.mode: top-off
# Facility.gup: 301027
# Facility.saf: 304156
# Mono.name: Si(111)
# Mono.d_spacing: 3.13526
# Mono.encoder_resolution: 0.0000050 deg/ct
# Mono.angle_offset: 16.0571 deg
# Mono.scan_mode: pseudo channel cut
# Mono.scan_type: step
# Mono.direction: forward in energy
# Sample.name: CaCe2Ti4O12
# Sample.prep: Powder in polyethylene glycol pellet
# Sample.x_position: -113.290 mm
# Sample.y_position: 117.505 mm
# Sample.wheel_position: 225.000 mm
# Scan.experimenters: Bruce Ravel, Martin Stennett
# Scan.edge_energy: 4966.0
# Scan.start_time: 2019-05-30T19:31:03
# Scan.end_time: 2019-05-30T20:15:10
# Scan.transient_id: 9852
# Scan.uid: b8f09ba5-23aa-449f-920b-bdfdb9eaf65b
# Scan.plot_hint: (DTC1 + DTC2 + DTC3 + DTC4) / I0  --  ($8+$9+$10+$11) / $5
# Scan.sequence: merge of 3 scans
# Column.1: energy eV
# Column.2: requested_energy eV
# Column.3: measurement_time seconds
# Column.4: mutrans
# Column.5: i0
# Column.6: itrans
# Column.7: irefer
# /////
#  sample disk prepared by Martin
# -----
# energy   requested_energy   measurement_time   mutrans   i0   itrans   irefer
4766 4766 0.500000 76.0925 10.5498 0.037192 0.005294
4796.01 4796 0.500000 69.4613 11.3429 0.043405 0.006049
4826.01 4826 0.500000 59.1984 12.1341 0.051998 0.006986
4856 4856 0.500000 48.4732 12.9086 0.062151 0.008264
4886 4886 0.500000 40.725 13.7269 0.073761 0.010079
4916.01 4916 0.500000 33.7678 14.5336 0.086776 0.011751
4938 4938 0.500000 31.4752 15.0992 0.097468 0.013502
4944 4944 0.500000 30.396 15.2452 0.100349 0.013898
4950 4950 0.500000 30.0246 15.3738 0.103220 0.014064
4956 4956 0.500000 33.7753 15.5064 0.106142 0.014567
4956.74 4956.75 0.500000 33.9393 15.5208 0.106720 0.014840
4957.49 4957.5 0.500000 34.1788 15.5301 0.106773 0.014646
4958.24 4958.25 0.500000 36.1015 15.5441 0.107363 0.014941
4958.99 4959 0.500000 34.5445 15.56 0.107814 0.014957
4959.74 4959.75 0.500000 35.8296 15.5727 0.108059 0.014823
4960.5 4960.5 0.500000 35.9313 15.5877 0.108086 0.014919
4961.24 4961.25 0.500000 37.2965 15.6043 0.108791 0.015056
4962 4962 0.500000 37.7922 15.6206 0.108870 0.014879
4962.75 4962.75 0.500000 40.1004 15.6319 0.109041 0.014851
4963.49 4963.5 0.500000 41.9306 15.6505 0.109639 0.014860
4964.25 4964.25 0.500000 45.4687 15.6642 0.109905 0.014005
4965 4965 0.500000 49.3318 15.6825 0.110264 0.011885
4965.74 4965.75 0.500000 56.2226 15.6918 0.110181 0.010687
4966.5 4966.5 0.500000 72.307 15.7119 0.110054 0.011472
4967.25 4967.25 0.500000 122.593 15.7196 0.108782 0.011955
4968 4968 0.500000 127.385 15.7362 0.108870 0.011551
4968.75 4968.75 0.500000 175.119 15.7513 0.107637 0.011107
4969.5 4969.5 0.500000 267.008 15.7541 0.104620 0.010334
4970.25 4970.25 0.500000 240.296 15.7659 0.105895 0.010293
4971 4971 0.500000 226.497 15.8018 0.107245 0.010538
4971.75 4971.75 0.500000 237.852 15.8266 0.107020 0.010117
4972.5 4972.5 0.500000 304.379 15.8405 0.104979 0.009425
4973.25 4973.25 0.500000 346.488 15.8526 0.104142 0.008787
4974 4974 0.500000 329.658 15.8953 0.105033 0.008431
4974.75 4974.75 0.500000 305.989 15.908 0.106457 0.008074
4975.5 4975.5 0.500000 284.91 15.9097 0.107323 0.007776
4976.25 4976.25 0.500000 290.193 15.945 0.107977 0.007478
4977 4977 0.500000 308.338 15.9485 0.107264 0.007137
4977.75 4977.75 0.500000 375.074 15.9531 0.105303 0.007050
4978.5 4978.5 0.500000 485.772 15.9687 0.102037 0.006581
4979.25 4979.25 0.500000 623.37 16.0167 0.098186 0.006481
4980 4980 0.500000 775.73 16.0124 0.093516 0.006043
4980.75 4980.75 0.500000 975.41 16.0066 0.087398 0.005577
4981.5 4981.5 0.500000 1263.63 16.0071 0.079647 0.005372
4982.25 4982.25 0.500000 1596.75 16.0145 0.070876 0.004763
4983 4983 0.500000 1905.71 16.0227 0.063859 0.004626
4983.75 4983.75 0.500000 2050.63 16.0248 0.060159 0.004440
4984.5 4984.5 0.500000 2064.99 16.023 0.060750 0.004483
4985.25 4985.25 0.500000 1933.2 16.0309 0.063633 0.004806
4986 4986 0.500000 1842.34 16.0356 0.066452 0.004935
4986.75 4986.75 0.500000 1744.73 16.0355 0.068676 0.004894
4987.5 4987.5 0.500000 1689.25 16.0291 0.070169 0.005186
4988.25 4988.25 0.500000 1692.77 16.0388 0.070648 0.005138
4989 4989 0.500000 1707.64 16.0724 0.070660 0.005033
4989.75 4989.75 0.500000 1728.54 16.1118 0.070499 0.005038
4990.5 4990.5 0.500000 1762.19 16.155 0.069943 0.005187
4991.25 4991.25 0.500000 1797.32 16.1946 0.069054 0.004925
4992 4992 0.500000 1848.06 16.2271 0.068512 0.004961
4992.75 4992.75 0.500000 1892.41 16.2522 0.067987 0.004972
4993.5 4993.5 0.500000 1918.93 16.274 0.067531 0.004938
4994.25 4994.25 0.500000 1934.04 16.2895 0.067144 0.004911
4995 4995 0.500000 1956.87 16.3082 0.066987 0.004768
4995.75 4995.75 0.500000 1983.05 16.3446 0.067112 0.004979
4998.19 4998.18 0.730000 1984.34 23.8524 0.098145 0.006886
5001.59 5001.58 0.760000 1902.68 24.946 0.107072 0.007323
5005.17 5005.16 0.800000 1775.19 26.4494 0.120393 0.008179
5008.92 5008.91 0.840000 1658.7 27.984 0.134981 0.009433
5012.83 5012.83 0.880000 1536.8 29.4967 0.150440 0.010608
5016.94 5016.93 0.910000 1511.64 30.7994 0.161208 0.011485
5021.19 5021.19 0.950000 1509.39 32.3686 0.171812 0.012380
5025.64 5025.63 0.990000 1507 33.9403 0.183084 0.013039
5030.24 5030.24 1.030000 1533.13 35.5127 0.193311 0.013960
5035.01 5035.01 1.060000 1538.46 36.8342 0.203577 0.013365
5039.98 5039.97 1.100000 1604.94 38.4377 0.212580 0.014262
5045.09 5045.09 1.140000 1643.67 40.0377 0.222496 0.014826
5050.37 5050.38 1.180000 1665.99 41.6614 0.234433 0.016035
5055.83 5055.84 1.210000 1755.57 42.9504 0.240339 0.017643
5061.48 5061.48 1.250000 1787.15 44.6214 0.251436 0.018275
5067.28 5067.29 1.290000 1768.56 46.3002 0.268843 0.019883
5073.27 5073.27 1.330000 1716.9 47.9962 0.288703 0.021495
5079.42 5079.42 1.360000 1729.65 49.3264 0.303236 0.022052
5085.74 5085.74 1.400000 1685.74 51.0098 0.324911 0.022202
5092.23 5092.23 1.440000 1666.28 52.7009 0.345730 0.023366
5098.9 5098.9 1.480000 1671.99 54.4107 0.364655 0.026103
5105.74 5105.74 1.510000 1687.63 55.7694 0.381165 0.028566
5112.74 5112.74 1.550000 1705.95 57.5175 0.400905 0.029842
5119.92 5119.92 1.590000 1726.57 59.287 0.421103 0.031430
5127.27 5127.27 1.630000 1738.78 61.0931 0.443638 0.033553
5134.79 5134.79 1.660000 1754.12 62.6828 0.465049 0.035412
5142.49 5142.49 1.700000 1774.17 64.7476 0.490754 0.036923
5150.35 5150.35 1.740000 1791.49 66.6751 0.516956 0.038110
5158.39 5158.39 1.780000 1811.48 68.7756 0.546137 0.040702
5166.6 5166.6 1.810000 1801.68 70.3652 0.575042 0.044259
5174.98 5174.98 1.850000 1801.49 72.3355 0.607885 0.047637
5183.53 5183.53 1.890000 1802.21 74.3642 0.643811 0.051241
5192.25 5192.25 1.930000 1806.46 76.3675 0.679317 0.054269
5201.14 5201.14 1.960000 1815.31 77.9741 0.712888 0.056976
5210.21 5210.21 2.000000 1825.92 80.0524 0.751778 0.060117
5219.45 5219.45 2.040000 1841.65 82.0913 0.791579 0.063634
5228.85 5228.85 2.080000 1856.11 84.059 0.833385 0.067891
5238.43 5238.43 2.110000 1869.42 85.7353 0.873131 0.072593
5248.18 5248.18 2.150000 1882.88 87.3332 0.915091 0.077243
5258.11 5258.11 2.190000 1898.43 90.0088 0.969941 0.083172
5268.2 5268.2 2.230000 1912.03 92.3805 1.022459 0.088489
5278.47 5278.47 2.260000 1929.48 93.2823 1.062201 0.091875
5288.9 5288.9 2.300000 1945.11 97.4198 1.143249 0.099810
5299.51 5299.51 2.340000 1955.81 99.8291 1.207586 0.106939
5310.29 5310.29 2.380000 1961.58 102.333 1.277396 0.114543
5321.24 5321.24 2.410000 1973.47 104.218 1.340391 0.121249
5332.36 5332.36 2.450000 1988.43 106.404 1.410171 0.129633
5343.66 5343.66 2.490000 1999 108.795 1.484982 0.138591
5355.12 5355.12 2.530000 2013.17 110.108 1.548045 0.146675
5366.76 5366.76 2.560000 2031.95 113.059 1.638966 0.156611
5378.57 5378.57 2.600000 2045.23 114.886 1.716689 0.164941
5390.55 5390.55 2.640000 2061.18 116.716 1.798861 0.176005
5402.7 5402.7 2.680000 2086.01 118.038 1.874304 0.185639
5415.02 5415.02 2.710000 2105.99 118.504 1.938968 0.195012
5427.52 5427.52 2.750000 2127.8 119.652 2.018430 0.206413
5440.18 5440.18 2.790000 2150.98 120.627 2.098221 0.217718
5453.02 5453.02 2.830000 2169.22 121.499 2.181141 0.230033
5466.03 5466.03 2.860000 2192.53 122.231 2.264938 0.241102
5479.21 5479.21 2.900000 2211.9 123.672 2.365260 0.255449
5492.56 5492.56 2.940000 2230.13 125.445 2.476104 0.271203
5506.08 5506.08 2.980000 2252.47 127.494 2.597310 0.288255
5519.78 5519.78 3.010000 2282.04 129.523 2.722520 0.306363
5533.64 5533.64 3.050000 2302.04 132.229 2.868439 0.327526
5547.68 5547.68 3.090000 2319.08 135.152 3.027240 0.350082
5561.89 5561.89 3.130000 2342.52 138.165 3.196489 0.374727
5576.27 5576.27 3.160000 2364 141.054 3.368435 0.400549
5590.82 5590.82 3.200000 2387.39 144.453 3.561977 0.429831
5605.54 5605.54 3.240000 2411.56 147.631 3.759605 0.459687
5620.44 5620.44 3.280000 2437.96 150.476 3.956864 0.491051
5635.5 5635.5 3.310000 2458.52 151.87 4.125918 0.519788
5650.74 5650.74 3.350000 2479.39 154.302 4.331669 0.554571
5666.15 5666.15 3.390000 2501.97 157.209 4.557464 0.592550
5681.73 5681.73 3.430000 2526.3 160.538 4.802055 0.632489
5697.48 5697.48 3.460000 2558.8 162.651 5.009248 0.670208
5708.08 5708.08 3.490000 2583.71 164.526 5.133748 0.694243

File: Ti-K-CaTiO3.xdi
# XDI/1.0 BlueSky/1.5.0
# Beamline.name: 6BM
# Beamline.xray_source: NSLS-II three-pole wiggler
# Beamline.collimation: paraboloid mirror, 5 nm Rh on 30 nm Pt
# Beamline.focusing: not in use
# Beamline.harmonic_rejection: flat mirror, Si stripe, pitch = 7.0 mrad relative to beam
# Detector.i0: 10 cm N2
# Detector.i1: 25 cm N2
# Detector.i2: 25 cm N2
# Element.symbol: Ti
# Element.edge: K
# Facility.name: NSLS-II
# Facility.energy: 3.0
# Facility.current: 220.1
# Facility.mode: top-off
# Facility.gup: 301027
# Facility.saf: 304156
# Mono.name: Si(111)
# Mono.d_spacing: 3.13526
# Mono.encoder_resolution: 0.0000050 deg/ct
# Mono.angle_offset: 16.0571 deg
# Mono.scan_mode: pseudo channel cut
# Mono.scan_type: step
# Mono.direction: forward in energy
# Sample.name: CaTiO3
# Sample.prep: Powder in polyethylene glycol pellet
# Sample.x_position: -97.532 mm
# Sample.y_position: 117.543 mm
# Sample.wheel_position: -450.000 mm
# Scan.experimenters: Bruce Ravel, Martin Stennett
# Scan.edge_energy: 4966.0
# Scan.start_time: 2019-05-29T20:28:09
# Scan.end_time: 2019-05-29T21:11:16
# Scan.transient_id: 9758
# Scan.uid: 7de68e6b-651d-44d7-99e1-867c63bb4988
# Scan.plot_hint: ln(I0/It)  --  ln($5/$6)
# Scan.sequence: merge of 3 scans
# Column.1: energy eV
# Column.2: requested_energy eV
# Column.3: measurement_time seconds
# Column.4: mutrans
# Column.5: i0
# Column.6: itrans
# Column.7: irefer
# /////
#  sample disk prepared by Martin
# -----
# energy   requested_energy   measurement_time   mutrans   i0   itrans   irefer
4765.98 4766 0.500000 3.533481 10.9025 0.318387 0.025723
4796.01 4796 0.500000 3.457477 11.64 0.366766 0.030774
4826.01 4826 0.500000 3.384898 12.386 0.419652 0.036302
4856.01 4856 0.500000 3.312807 13.1304 0.478127 0.043187
4886.01 4886 0.500000 3.243968 13.8426 0.539986 0.050331
4916 4916 0.500000 3.176693 14.5519 0.607157 0.058953
4938 4938 0.500000 3.128853 15.053 0.658839 0.065676
4944.01 4944 0.500000 3.115895 15.1774 0.672953 0.067515
4950.01 4950 0.500000 3.103264 15.2885 0.686490 0.069222
4956 4956 0.500000 3.091141 15.3956 0.699725 0.071065
4956.74 4956.75 0.500000 3.090044 15.4035 0.700857 0.070969
4957.49 4957.5 0.500000 3.088486 15.4132 0.702396 0.071299
4958.24 4958.25 0.500000 3.087402 15.4253 0.703704 0.071529
4958.99 4959 0.500000 3.085661 15.4754 0.707223 0.071756
4959.75 4959.75 0.500000 3.084281 15.5096 0.709764 0.071904
4960.5 4960.5 0.500000 3.082883 15.5251 0.711467 0.072107
4961.25 4961.25 0.500000 3.081552 15.5357 0.712904 0.071829
4962 4962 0.500000 3.080425 15.5501 0.714368 0.071787
4962.74 4962.75 0.500000 3.078926 15.5651 0.716127 0.071333
4963.5 4963.5 0.500000 3.077575 15.5805 0.717810 0.070221
4964.25 4964.25 0.500000 3.076365 15.5975 0.719459 0.065229
4965 4965 0.500000 3.075311 15.6272 0.721590 0.052415
4965.75 4965.75 0.500000 3.074830 15.6543 0.723188 0.049881
4966.5 4966.5 0.500000 3.077055 15.665 0.722080 0.055341
4967.25 4967.25 0.500000 3.083333 15.6739 0.717964 0.056361
4968 4968 0.500000 3.079806 15.6913 0.721301 0.054628
4968.75 4968.75 0.500000 3.091032 15.704 0.713853 0.051423
4969.5 4969.5 0.500000 3.108055 15.708 0.701956 0.048943
4970.25 4970.25 0.500000 3.104873 15.7242 0.704914 0.048242
4971 4971 0.500000 3.098136 15.7574 0.711181 0.047990
4971.75 4971.75 0.500000 3.098342 15.775 0.711798 0.046111
4972.5 4972.5 0.500000 3.114849 15.7864 0.700695 0.042778
4973.25 4973.25 0.500000 3.119240 15.7965 0.698060 0.039864
4974 4974 0.500000 3.117685 15.8081 0.699656 0.037795
4974.75 4974.75 0.500000 3.116869 15.8134 0.700464 0.035876
4975.5 4975.5 0.500000 3.114380 15.8112 0.702110 0.033862
4976.25 4976.25 0.500000 3.113796 15.81 0.702468 0.032152
4977 4977 0.500000 3.120903 15.8135 0.697635 0.030506
4977.75 4977.75 0.500000 3.133701 15.8218 0.689151 0.029365
4978.5 4978.5 0.500000 3.156618 15.8318 0.673968 0.028062
4979.25 4979.25 0.500000 3.182538 15.8303 0.656609 0.026991
4980 4980 0.500000 3.208147 15.8193 0.639634 0.025933
4980.75 4980.75 0.500000 3.236306 15.8143 0.621611 0.025174
4981.5 4981.5 0.500000 3.276741 15.8134 0.597009 0.023982
4982.25 4982.25 0.500000 3.340622 15.8208 0.560333 0.022204
4983 4983 0.500000 3.415003 15.8268 0.520250 0.021157
4983.75 4983.75 0.500000 3.471580 15.8213 0.491614 0.019847
4984.5 4984.5 0.500000 3.488176 15.8198 0.483411 0.019702
4985.25 4985.25 0.500000 3.473988 15.8256 0.490468 0.020327
4986 4986 0.500000 3.450139 15.8245 0.502275 0.020730
4986.75 4986.75 0.500000 3.431233 15.8189 0.511698 0.021505
4987.5 4987.5 0.500000 3.425715 15.8172 0.514465 0.021773
4988.25 4988.25 0.500000 3.423265 15.8621 0.517195 0.021929
4989 4989 0.500000 3.423323 15.9278 0.519311 0.021916
4989.75 4989.75 0.500000 3.425320 15.9621 0.519393 0.022151
4990.51 4990.5 0.500000 3.425763 15.9988 0.520356 0.022154
4991.25 4991.25 0.500000 3.422864 16.0319 0.522937 0.022278
4992 4992 0.500000 3.420338 16.0607 0.525208 0.022416
4992.75 4992.75 0.500000 3.420695 16.0802 0.525658 0.022668
4993.5 4993.5 0.500000 3.418814 16.0954 0.527146 0.022549
4994.25 4994.25 0.500000 3.412933 16.1472 0.531957 0.022952
4995 4995 0.500000 3.409642 16.156 0.534002 0.022568
4995.75 4995.75 0.500000 3.412193 16.186 0.533628 0.022446
4998.19 4998.18 0.730000 3.436241 23.618 0.760159 0.030126
5001.59 5001.58 0.760000 3.434182 24.6843 0.796109 0.031364
5005.17 5005.16 0.800000 3.372044 26.1654 0.897984 0.036062
5008.92 5008.91 0.840000 3.327497 27.6657 0.992722 0.042227
5012.84 5012.83 0.880000 3.294295 29.1481 1.081225 0.047522
5016.94 5016.93 0.910000 3.285462 30.2956 1.133759 0.051336
5021.19 5021.19 0.950000 3.272010 31.8089 1.206503 0.056229
5025.64 5025.63 0.990000 3.259565 33.3366 1.280291 0.059159
5030.25 5030.24 1.030000 3.261298 34.8706 1.336902 0.060667
5035.02 5035.01 1.060000 3.243479 36.0745 1.407911 0.059972
5039.98 5039.97 1.100000 3.241027 37.6362 1.472446 0.060874
5045.09 5045.09 1.140000 3.252261 39.2042 1.516678 0.065217
5050.38 5050.38 1.180000 3.247860 40.7869 1.584865 0.072450
5055.84 5055.84 1.210000 3.242424 42.0598 1.643235 0.078959
5061.48 5061.48 1.250000 3.232560 43.7068 1.724516 0.083452
5067.29 5067.29 1.290000 3.220857 45.3694 1.811199 0.089747
5073.27 5073.27 1.330000 3.191558 47.1227 1.937141 0.097312
5079.42 5079.42 1.360000 3.177319 48.6465 2.028426 0.098816
5085.74 5085.74 1.400000 3.162494 50.3946 2.132702 0.099036
5092.23 5092.23 1.440000 3.138504 52.1698 2.261417 0.103127
5098.9 5098.9 1.480000 3.120857 53.9621 2.380771 0.116656
5105.74 5105.74 1.510000 3.106402 55.3849 2.479123 0.129096
5112.74 5112.74 1.550000 3.093194 57.2708 2.597625 0.136467
5119.92 5119.92 1.590000 3.080890 59.117 2.714555 0.144002
5127.27 5127.27 1.630000 3.073582 61.0235 2.822656 0.151835
5134.79 5134.79 1.660000 3.063070 62.6087 2.926574 0.158475
5142.49 5142.49 1.700000 3.045543 64.6024 3.073188 0.164838
5150.35 5150.35 1.740000 3.028932 66.6115 3.221813 0.170665
5158.39 5158.39 1.780000 3.010421 68.652 3.382545 0.184326
5166.6 5166.6 1.810000 2.994704 70.3369 3.520460 0.197828
5174.98 5174.98 1.850000 2.977076 72.4036 3.688376 0.214050
5183.53 5183.53 1.890000 2.958573 74.506 3.866328 0.229028
5192.25 5192.25 1.930000 2.941472 76.6292 4.045118 0.242036
5201.14 5201.14 1.960000 2.921989 78.3453 4.217059 0.253143
5210.21 5210.21 2.000000 2.903620 80.747 4.426896 0.266398
5219.45 5219.45 2.040000 2.886652 83.1915 4.638984 0.282567
5228.85 5228.85 2.080000 2.871094 85.4333 4.838711 0.299719
5238.43 5238.43 2.110000 2.855831 87.4048 5.026492 0.317748
5248.18 5248.18 2.150000 2.840531 89.4666 5.224349 0.338404
5258.11 5258.11 2.190000 2.820948 92.5894 5.513636 0.364322
5268.2 5268.2 2.230000 2.802379 95.2464 5.778150 0.386751
5278.47 5278.47 2.260000 2.784650 96.6045 5.965376 0.402604
5288.9 5288.9 2.300000 2.766493 100.333 6.309171 0.430590
5299.51 5299.51 2.340000 2.747916 103.018 6.599458 0.457855
5310.29 5310.29 2.380000 2.729951 105.92 6.908319 0.487024
5321.24 5321.24 2.410000 2.711131 108.049 7.181091 0.514653
5332.36 5332.36 2.450000 2.692117 110.443 7.481102 0.546569
5343.66 5343.66 2.490000 2.672279 113.295 7.828103 0.583457
5355.12 5355.12 2.530000 2.654831 115.086 8.091764 0.613493
5366.76 5366.76 2.560000 2.636493 118.1 8.457421 0.649135
5378.57 5378.57 2.600000 2.618879 119.994 8.745726 0.680454
5390.55 5390.55 2.640000 2.599735 121.868 9.053977 0.716372
5402.7 5402.7 2.680000 2.580130 123.722 9.373662 0.754359
5415.02 5415.02 2.710000 2.560168 124.5 9.622760 0.788272
5427.52 5427.52 2.750000 2.540535 125.581 9.898842 0.825767
5440.18 5440.18 2.790000 2.520552 126.739 10.1917 0.865699
5453.02 5453.02 2.830000 2.500814 128.27 10.5205 0.908360
5466.03 5466.03 2.860000 2.480773 129.722 10.8549 0.951958
5479.21 5479.21 2.900000 2.460337 131.873 11.2627 1.004087
5492.56 5492.56 2.940000 2.439971 134.204 11.6976 1.059792
5506.08 5506.08 2.980000 2.419246 137.172 12.2068 1.124877
5519.78 5519.78 3.010000 2.399296 139.531 12.6668 1.186402
5533.64 5533.64 3.050000 2.379178 142.685 13.2164 1.259806
5547.68 5547.68 3.090000 2.358791 145.746 13.778 1.336235
5561.89 5561.89 3.130000 2.338291 149.216 14.3982 1.419369
5576.27 5576.27 3.160000 2.317881 151.835 14.953 1.499351
5590.82 5590.82 3.200000 2.297931 155.013 15.5735 1.587882
5605.54 5605.54 3.240000 2.277688 157.979 16.1961 1.678492
5620.44 5620.44 3.280000 2.257082 160.834 16.8321 1.774273
5635.5 5635.5 3.310000 2.236912 161.863 17.2849 1.854965
5650.74 5650.74 3.350000 2.215736 164.846 17.9802 1.963904
5666.15 5666.15 3.390000 2.195358 168.008 18.7024 2.078035
5681.73 5681.73 3.430000 2.175082 171.778 19.5138 2.205348
5697.48 5697.48 3.460000 2.154673 174.501 20.2318 2.326141
5708.08 5708.08 3.490000 2.140954 176.478 20.7436 2.412321