Folder: webxdiviewer/xdidata/Ti (part 8)

File: Ti-K-FeTiO3.xdi
# XDI/1.0 BlueSky/1.5.0
# Beamline.name: 6BM
# Beamline.xray_source: NSLS-II three-pole wiggler
# Beamline.collimation: paraboloid mirror, 5 nm Rh on 30 nm Pt
# Beamline.focusing: not in use
# Beamline.harmonic_rejection: flat mirror, Si stripe, pitch = 7.0 mrad relative to beam
# Detector.i0: 10 cm N2
# Detector.i1: 25 cm N2
# Detector.i2: 25 cm N2
# Element.symbol: Ti
# Element.edge: K
# Facility.name: NSLS-II
# Facility.energy: 3.0
# Facility.current: 220.4
# Facility.mode: top-off
# Facility.gup: 301027
# Facility.saf: 304156
# Mono.name: Si(111)
# Mono.d_spacing: 3.13526
# Mono.encoder_resolution: 0.0000050 deg/ct
# Mono.angle_offset: 16.0571 deg
# Mono.scan_mode: pseudo channel cut
# Mono.scan_type: step
# Mono.direction: forward in energy
# Sample.name: FeTiO3 ilmentite
# Sample.prep: Powder in polyethylene glycol pellet
# Sample.x_position: -97.532 mm
# Sample.y_position: 117.543 mm
# Sample.wheel_position: -495.000 mm
# Scan.experimenters: Bruce Ravel, Martin Stennett
# Scan.edge_energy: 4966.0
# Scan.start_time: 2019-05-29T22:38:18
# Scan.end_time: 2019-05-29T23:21:07
# Scan.transient_id: 9767
# Scan.uid: c73218a9-3596-4db0-a2a7-6013c9c8c299
# Scan.plot_hint: ln(I0/It)  --  ln($5/$6)
# Scan.sequence: merge of 3 scans
# Column.1: energy eV
# Column.2: requested_energy eV
# Column.3: measurement_time seconds
# Column.4: mutrans
# Column.5: i0
# Column.6: itrans
# Column.7: irefer
# /////
#  sample disk prepared by Martin
# -----
# energy   requested_energy   measurement_time   mutrans   i0   itrans   irefer
4765.98 4766 0.500000 3.813591 11.0101 0.242998 0.020035
4796.01 4796 0.500000 3.739806 11.7266 0.278608 0.023556
4826.01 4826 0.500000 3.659155 12.4392 0.320367 0.028072
4856.01 4856 0.500000 3.580892 13.152 0.366292 0.033247
4886.01 4886 0.500000 3.506039 13.8361 0.415301 0.039075
4916 4916 0.500000 3.433368 14.5035 0.468145 0.045708
4938 4938 0.500000 3.381866 14.9782 0.509022 0.051160
4944.01 4944 0.500000 3.367935 15.0952 0.520201 0.052457
4950.01 4950 0.500000 3.354984 15.2034 0.530750 0.053940
4956.01 4956 0.500000 3.342705 15.3021 0.540794 0.055180
4956.75 4956.75 0.500000 3.342214 15.3135 0.541465 0.054997
4957.49 4957.5 0.500000 3.340635 15.3218 0.542613 0.055244
4958.24 4958.25 0.500000 3.338807 15.3344 0.544054 0.055221
4959 4959 0.500000 3.337491 15.3439 0.545108 0.055560
4959.74 4959.75 0.500000 3.336343 15.3542 0.546098 0.055451
4960.49 4960.5 0.500000 3.335197 15.366 0.547147 0.055733
4961.25 4961.25 0.500000 3.334193 15.3809 0.548227 0.055418
4962 4962 0.500000 3.333221 15.396 0.549298 0.055511
4962.75 4962.75 0.500000 3.332818 15.4079 0.549946 0.054894
4963.5 4963.5 0.500000 3.332912 15.4216 0.550387 0.053974
4964.25 4964.25 0.500000 3.332621 15.4485 0.551506 0.049668
4964.99 4965 0.500000 3.334486 15.4685 0.551198 0.040123
4965.75 4965.75 0.500000 3.339811 15.4812 0.548712 0.038628
4966.5 4966.5 0.500000 3.362995 15.4892 0.536454 0.041557
4967.25 4967.25 0.500000 3.398900 15.4963 0.517759 0.040880
4968 4968 0.500000 3.396645 15.5131 0.519474 0.039583
4968.75 4968.75 0.500000 3.497897 15.5221 0.469877 0.034327
4969.5 4969.5 0.500000 3.520767 15.5242 0.459154 0.032458
4970.25 4970.25 0.500000 3.449953 15.5413 0.493299 0.034233
4971 4971 0.500000 3.413403 15.5738 0.512841 0.034780
4971.75 4971.75 0.500000 3.410727 15.626 0.515931 0.033740
4972.5 4972.5 0.500000 3.415557 15.6376 0.513823 0.031659
4973.25 4973.25 0.500000 3.419226 15.6459 0.512200 0.029444
4974 4974 0.500000 3.434791 15.652 0.504545 0.027537
4974.75 4974.75 0.500000 3.467472 15.659 0.488495 0.025274
4975.5 4975.5 0.500000 3.518544 15.6583 0.464140 0.022597
4976.25 4976.25 0.500000 3.577720 15.6915 0.438445 0.020545
4977 4977 0.500000 3.626322 15.6954 0.417687 0.019280
4977.75 4977.75 0.500000 3.658288 15.699 0.404704 0.017672
4978.5 4978.5 0.500000 3.690494 15.7075 0.392012 0.017099
4979.25 4979.25 0.500000 3.734063 15.7075 0.375386 0.016089
4980 4980 0.500000 3.798370 15.7 0.351769 0.015186
4980.75 4980.75 0.500000 3.883643 15.6898 0.322868 0.014016
4981.5 4981.5 0.500000 3.976762 15.6924 0.294198 0.012787
4982.25 4982.25 0.500000 4.058859 15.6966 0.271030 0.011794
4983 4983 0.500000 4.112472 15.7007 0.256975 0.011236
4983.75 4983.75 0.500000 4.131048 15.6952 0.252161 0.010998
4984.5 4984.5 0.500000 4.139380 15.6971 0.250097 0.011127
4985.25 4985.25 0.500000 4.158063 15.7003 0.245521 0.010974
4986 4986 0.500000 4.185768 15.6991 0.238774 0.010762
4986.75 4986.75 0.500000 4.222176 15.6923 0.230163 0.010688
4987.5 4987.5 0.500000 4.269528 15.6862 0.219435 0.010499
4988.25 4988.25 0.500000 4.303535 15.7006 0.212282 0.010297
4989 4989 0.500000 4.294001 15.7307 0.214717 0.010200
4989.75 4989.75 0.500000 4.251250 15.7649 0.224613 0.010791
4990.5 4990.5 0.500000 4.203254 15.8012 0.236174 0.011272
4991.25 4991.25 0.500000 4.168087 15.8354 0.245177 0.011504
4992 4992 0.500000 4.142714 15.859 0.251844 0.011562
4992.75 4992.75 0.500000 4.120424 15.8783 0.257811 0.012048
4993.5 4993.5 0.500000 4.105573 15.8913 0.261905 0.012090
4994.25 4994.25 0.500000 4.096721 15.9082 0.264502 0.012171
4995 4995 0.500000 4.093280 15.9568 0.266230 0.012111
4995.75 4995.75 0.500000 4.096506 16.0191 0.266403 0.012122
4998.19 4998.18 0.730000 4.143130 23.3212 0.370209 0.016195
5001.58 5001.58 0.760000 4.179436 24.3834 0.373237 0.016168
5005.16 5005.16 0.800000 4.114574 25.8339 0.421931 0.018701
5008.91 5008.91 0.840000 4.048935 27.3178 0.476434 0.021745
5012.84 5012.83 0.880000 3.969862 28.8476 0.544518 0.025785
5016.93 5016.93 0.910000 3.939989 29.9854 0.583163 0.028163
5021.2 5021.19 0.950000 3.919395 31.4771 0.624923 0.030726
5025.63 5025.63 0.990000 3.912362 33.072 0.661214 0.032395
5030.24 5030.24 1.030000 3.918611 34.6026 0.687512 0.032992
5035.02 5035.01 1.060000 3.936285 35.8078 0.698977 0.031688
5039.97 5039.97 1.100000 3.950005 37.365 0.719451 0.032127
5045.09 5045.09 1.140000 3.941905 38.9333 0.755749 0.034711
5050.38 5050.38 1.180000 3.920486 40.5299 0.803767 0.038960
5055.83 5055.84 1.210000 3.902505 41.8093 0.844179 0.042697
5061.48 5061.48 1.250000 3.895137 43.4624 0.884054 0.045006
5067.29 5067.29 1.290000 3.884894 45.1391 0.927614 0.048227
5073.27 5073.27 1.330000 3.874022 46.847 0.973227 0.051032
5079.42 5079.42 1.360000 3.851780 48.2305 1.024520 0.052654
5085.74 5085.74 1.400000 3.829774 49.9824 1.085348 0.052411
5092.23 5092.23 1.440000 3.817666 51.7859 1.138204 0.054554
5098.9 5098.9 1.480000 3.788392 53.6281 1.213703 0.062043
5105.74 5105.74 1.510000 3.759648 55.1447 1.284437 0.069735
5112.74 5112.74 1.550000 3.741400 57.1039 1.354552 0.073729
5119.92 5119.92 1.590000 3.726212 59.0032 1.421023 0.077912
5127.27 5127.27 1.630000 3.716770 60.9506 1.481856 0.082492
5134.79 5134.79 1.660000 3.711990 62.5743 1.528620 0.085286
5142.49 5142.49 1.700000 3.699422 64.7677 1.602204 0.088822
5150.35 5150.35 1.740000 3.685781 66.9918 1.679999 0.091898
5158.39 5158.39 1.780000 3.661155 69.108 1.776262 0.099812
5166.6 5166.6 1.810000 3.629637 70.8716 1.879919 0.108243
5174.98 5174.98 1.850000 3.601857 73.0112 1.991222 0.118603
5183.53 5183.53 1.890000 3.587373 75.193 2.080659 0.126372
5192.25 5192.25 1.930000 3.577359 77.3631 2.162253 0.132469
5201.14 5201.14 1.960000 3.562278 79.1168 2.244869 0.137818
5210.21 5210.21 2.000000 3.544921 81.3718 2.349277 0.144554
5219.45 5219.45 2.040000 3.519800 83.6887 2.477632 0.153918
5228.85 5228.85 2.080000 3.494015 86.0425 2.613863 0.164875
5238.43 5238.43 2.110000 3.467380 88.0865 2.748180 0.176683
5248.18 5248.18 2.150000 3.448465 89.9258 2.859136 0.188411
5258.11 5258.11 2.190000 3.432424 93.3841 3.017114 0.202269
5268.2 5268.2 2.230000 3.416974 96.0793 3.152520 0.213975
5278.47 5278.47 2.260000 3.396859 97.5702 3.266484 0.223936
5288.9 5288.9 2.300000 3.373476 101.465 3.477251 0.240403
5299.51 5299.51 2.340000 3.349921 104.432 3.664225 0.257001
5310.29 5310.29 2.380000 3.326761 107.34 3.854503 0.274700
5321.24 5321.24 2.410000 3.304954 109.483 4.018112 0.290708
5332.36 5332.36 2.450000 3.283205 111.753 4.191598 0.309026
5343.66 5343.66 2.490000 3.260694 114.432 4.389816 0.330530
5355.12 5355.12 2.530000 3.237492 116.05 4.556358 0.348597
5366.76 5366.76 2.560000 3.216463 118.752 4.761580 0.368387
5378.57 5378.57 2.600000 3.195023 120.716 4.945216 0.387733
5390.55 5390.55 2.640000 3.173333 122.603 5.132637 0.409244
5402.7 5402.7 2.680000 3.151009 124.566 5.332550 0.432158
5415.02 5415.02 2.710000 3.127534 125.599 5.504471 0.454068
5427.52 5427.52 2.750000 3.104907 126.989 5.692757 0.477564
5440.18 5440.18 2.790000 3.083822 128.889 5.901059 0.504079
5453.02 5453.02 2.830000 3.062773 130.97 6.123874 0.531752
5466.03 5466.03 2.860000 3.041519 132.864 6.345937 0.559266
5479.21 5479.21 2.900000 3.018198 135.273 6.613395 0.592068
5492.56 5492.56 2.940000 2.993712 137.761 6.902002 0.628113
5506.08 5506.08 2.980000 2.968258 140.448 7.218038 0.667610
5519.78 5519.78 3.010000 2.943548 142.933 7.529510 0.708088
5533.64 5533.64 3.050000 2.919917 146.013 7.875704 0.753256
5547.68 5547.68 3.090000 2.897209 149.077 8.225642 0.800417
5561.89 5561.89 3.130000 2.874507 152.566 8.611495 0.850945
5576.27 5576.27 3.160000 2.850326 155.546 8.994570 0.904233
5590.82 5590.82 3.200000 2.826334 158.892 9.411158 0.962051
5605.54 5605.54 3.240000 2.802077 162.035 9.832964 1.021516
5620.44 5620.44 3.280000 2.777850 165.428 10.285 1.086677
5635.5 5635.5 3.310000 2.754737 166.507 10.5942 1.139171
5650.74 5650.74 3.350000 2.730369 169.234 11.0333 1.207228
5666.15 5666.15 3.390000 2.706205 172.269 11.5058 1.280768
5681.73 5681.73 3.430000 2.682269 176.033 12.0421 1.363013
5697.48 5697.48 3.460000 2.658313 178.647 12.5171 1.441263
5708.08 5708.08 3.490000 2.641673 180.672 12.8714 1.499650

File: Ti-K-Fresnoite.xdi
# XDI/1.0 BlueSky/1.5.0
# Beamline.name: 6BM
# Beamline.xray_source: NSLS-II three-pole wiggler
# Beamline.collimation: paraboloid mirror, 5 nm Rh on 30 nm Pt
# Beamline.focusing: not in use
# Beamline.harmonic_rejection: flat mirror, Si stripe, pitch = 7.0 mrad relative to beam
# Detector.i0: 10 cm N2
# Detector.i1: 25 cm N2
# Detector.i2: 25 cm N2
# Element.symbol: Ti
# Element.edge: K
# Facility.name: NSLS-II
# Facility.energy: 3.0
# Facility.current: 219.5
# Facility.mode: top-off
# Facility.gup: 301027
# Facility.saf: 304156
# Mono.name: Si(111)
# Mono.d_spacing: 3.13526
# Mono.encoder_resolution: 0.0000050 deg/ct
# Mono.angle_offset: 16.0571 deg
# Mono.scan_mode: pseudo channel cut
# Mono.scan_type: step
# Mono.direction: forward in energy
# Sample.name: Ba2(TiO)Si2O7 fresnoite
# Sample.prep: Powder in polyethylene glycol pellet
# Sample.x_position: -97.532 mm
# Sample.y_position: 117.543 mm
# Sample.wheel_position: -690.000 mm
# Scan.experimenters: Bruce Ravel, Martin Stennett
# Scan.edge_energy: 4966.0
# Scan.start_time: 2019-05-30T08:01:51
# Scan.end_time: 2019-05-30T08:44:49
# Scan.transient_id: 9806
# Scan.uid: 34954009-84be-4eee-97a8-3ec73f49befe
# Scan.plot_hint: ln(I0/It)  --  ln($5/$6)
# Scan.sequence: merge of 3 scans
# Column.1: energy eV
# Column.2: requested_energy eV
# Column.3: measurement_time seconds
# Column.4: mutrans
# Column.5: i0
# Column.6: itrans
# Column.7: irefer
# /////
#  sample disk prepared by Martin
# -----
# energy   requested_energy   measurement_time   mutrans   i0   itrans   irefer
4765.99 4766 0.500000 4.363154 10.9977 0.140092 0.012081
4796.01 4796 0.500000 4.278305 11.6113 0.161004 0.014493
4826.01 4826 0.500000 4.189031 12.2538 0.185781 0.016949
4856 4856 0.500000 4.104034 12.9165 0.213196 0.020118
4886.01 4886 0.500000 4.021226 13.5966 0.243804 0.023506
4916 4916 0.500000 3.939847 14.1853 0.275923 0.027609
4938 4938 0.500000 3.881076 14.6105 0.301396 0.031097
4944 4944 0.500000 3.865325 14.7154 0.308376 0.031649
4950.01 4950 0.500000 3.850402 14.816 0.315154 0.032656
4956 4956 0.500000 3.834896 14.911 0.322129 0.033632
4956.74 4956.75 0.500000 3.833292 14.9175 0.322788 0.033529
4957.5 4957.5 0.500000 3.830615 14.9273 0.323870 0.033833
4958.24 4958.25 0.500000 3.829152 14.9677 0.325217 0.033775
4958.99 4959 0.500000 3.828898 14.9732 0.325422 0.033695
4959.75 4959.75 0.500000 3.825742 14.9886 0.326786 0.033855
4960.5 4960.5 0.500000 3.824189 15.0009 0.327562 0.033858
4961.25 4961.25 0.500000 3.822015 15.013 0.328539 0.033937
4962 4962 0.500000 3.820848 15.0225 0.329133 0.033865
4962.74 4962.75 0.500000 3.818533 15.0348 0.330164 0.033818
4963.5 4963.5 0.500000 3.818697 15.0808 0.331121 0.033113
4964.25 4964.25 0.500000 3.817195 15.0933 0.331894 0.031372
4965 4965 0.500000 3.815719 15.1023 0.332582 0.025750
4965.75 4965.75 0.500000 3.816276 15.1144 0.332663 0.023873
4966.5 4966.5 0.500000 3.819348 15.1222 0.331812 0.025915
4967.25 4967.25 0.500000 3.828010 15.129 0.329082 0.026554
4968 4968 0.500000 3.853441 15.1423 0.321123 0.025280
4968.75 4968.75 0.500000 3.934802 15.1535 0.296276 0.022390
4969.5 4969.5 0.500000 3.962392 15.157 0.288228 0.021025
4970.25 4970.25 0.500000 3.849267 15.1649 0.322950 0.022930
4971 4971 0.500000 3.821941 15.1972 0.332598 0.023339
4971.75 4971.75 0.500000 3.817923 15.2149 0.334322 0.022444
4972.5 4972.5 0.500000 3.825312 15.2248 0.332075 0.021165
4973.25 4973.25 0.500000 3.829703 15.2363 0.330871 0.019900
4974 4974 0.500000 3.832485 15.2415 0.330064 0.018891
4974.75 4974.75 0.500000 3.838037 15.2498 0.328417 0.017646
4975.5 4975.5 0.500000 3.845355 15.2479 0.325983 0.016656
4976.25 4976.25 0.500000 3.858284 15.252 0.321875 0.015762
4977 4977 0.500000 3.878824 15.2519 0.315328 0.014624
4977.75 4977.75 0.500000 3.908806 15.2573 0.306139 0.013980
4978.5 4978.5 0.500000 3.936838 15.2697 0.297919 0.013314
4979.25 4979.25 0.500000 3.958292 15.2693 0.291581 0.012930
4980 4980 0.500000 3.973311 15.2982 0.287774 0.012647
4980.75 4980.75 0.500000 3.982453 15.2857 0.284924 0.012574
4981.5 4981.5 0.500000 4.008976 15.2851 0.277460 0.011710
4982.25 4982.25 0.500000 4.058411 15.2942 0.264216 0.011346
4983 4983 0.500000 4.073634 15.2995 0.260328 0.011352
4983.75 4983.75 0.500000 4.065031 15.2965 0.262519 0.011335
4984.5 4984.5 0.500000 4.056297 15.2954 0.264804 0.011355
4985.25 4985.25 0.500000 4.050288 15.2984 0.266458 0.011609
4986 4986 0.500000 4.061781 15.2994 0.263417 0.011764
4986.75 4986.75 0.500000 4.084574 15.2972 0.257461 0.011726
4987.5 4987.5 0.500000 4.110156 15.3002 0.251009 0.011395
4988.26 4988.25 0.500000 4.128534 15.3358 0.247005 0.011223
4989 4989 0.500000 4.127431 15.3646 0.247745 0.011426
4989.75 4989.75 0.500000 4.116314 15.4037 0.251155 0.011592
4990.5 4990.5 0.500000 4.104240 15.4374 0.254748 0.011896
4991.25 4991.25 0.500000 4.097655 15.472 0.257015 0.011903
4992 4992 0.500000 4.092435 15.4995 0.258811 0.011904
4992.75 4992.75 0.500000 4.086086 15.554 0.261383 0.012074
4993.5 4993.5 0.500000 4.081500 15.5692 0.262845 0.012072
4994.25 4994.25 0.500000 4.079732 15.5822 0.263526 0.012127
4995 4995 0.500000 4.080024 15.5948 0.263662 0.012060
4995.75 4995.75 0.500000 4.079582 15.6168 0.264150 0.011795
4998.18 4998.18 0.730000 4.073304 22.785 0.387818 0.016518
5001.58 5001.58 0.760000 4.058814 23.8166 0.411300 0.017298
5005.16 5005.16 0.800000 4.046601 25.2427 0.441277 0.018937
5008.91 5008.91 0.840000 4.007482 26.689 0.485179 0.022066
5012.83 5012.83 0.880000 3.967146 28.1239 0.532310 0.024937
5016.94 5016.93 0.910000 3.953452 29.241 0.561087 0.026731
5021.19 5021.19 0.950000 3.941927 30.7095 0.596097 0.028995
5025.63 5025.63 0.990000 3.924071 32.2108 0.636497 0.031143
5030.24 5030.24 1.030000 3.914216 33.7195 0.672913 0.032008
5035.01 5035.01 1.060000 3.912221 34.9087 0.698035 0.031233
5039.97 5039.97 1.100000 3.903470 36.4482 0.735223 0.032215
5045.09 5045.09 1.140000 3.892654 38.1017 0.776939 0.035122
5050.38 5050.38 1.180000 3.885166 39.6996 0.815607 0.039050
5055.84 5055.84 1.210000 3.872376 40.9852 0.852855 0.042602
5061.48 5061.48 1.250000 3.863265 42.6375 0.895357 0.045119
5067.28 5067.29 1.290000 3.848190 44.33 0.945035 0.048726
5073.27 5073.27 1.330000 3.828772 46.1529 1.003190 0.051706
5079.42 5079.42 1.360000 3.805130 47.5525 1.058338 0.053958
5085.73 5085.74 1.400000 3.784469 49.3283 1.120777 0.053937
5092.23 5092.23 1.440000 3.761874 51.1439 1.188588 0.056204
5098.9 5098.9 1.480000 3.746393 53.0146 1.251288 0.063295
5105.74 5105.74 1.510000 3.733135 54.6205 1.306399 0.069976
5112.74 5112.74 1.550000 3.716728 56.5474 1.374859 0.074472
5119.92 5119.92 1.590000 3.700904 58.5062 1.445173 0.078250
5127.27 5127.27 1.630000 3.684530 60.4916 1.518883 0.083846
5134.79 5134.79 1.660000 3.665098 62.1549 1.591269 0.088268
5142.49 5142.49 1.700000 3.646629 64.2601 1.675833 0.091724
5150.35 5150.35 1.740000 3.627112 66.3738 1.765067 0.095329
5158.39 5158.39 1.780000 3.605847 68.5213 1.861333 0.103432
5166.6 5166.6 1.810000 3.583911 70.2939 1.951841 0.111751
5174.98 5174.98 1.850000 3.562480 72.5357 2.057733 0.121378
5183.53 5183.53 1.890000 3.541365 74.8294 2.168092 0.130282
5192.25 5192.25 1.930000 3.520574 77.0425 2.279111 0.138552
5201.14 5201.14 1.960000 3.500523 78.8464 2.379710 0.144695
5210.21 5210.21 2.000000 3.482039 81.3174 2.500081 0.152215
5219.45 5219.45 2.040000 3.465627 83.6427 2.614126 0.161001
5228.85 5228.85 2.080000 3.457454 86.0598 2.711733 0.169352
5238.43 5238.43 2.110000 3.491566 88.1423 2.684227 0.171893
5248.18 5248.18 2.150000 5.133749 90.2939 0.532249 0.041227
5258.11 5258.11 2.190000 4.113838 93.3725 1.526036 0.106306
5268.2 5268.2 2.230000 4.213686 96.0795 1.421190 0.100796
5278.47 5278.47 2.260000 4.227269 97.2174 1.418638 0.101778
5288.9 5288.9 2.300000 4.092470 101.029 1.686958 0.120265
5299.51 5299.51 2.340000 4.129302 103.684 1.668696 0.121367
5310.29 5310.29 2.380000 4.104261 106.464 1.756890 0.129592
5321.24 5321.24 2.410000 4.083256 108.541 1.829191 0.136881
5332.36 5332.36 2.450000 4.049948 111.01 1.934164 0.147246
5343.66 5343.66 2.490000 4.013580 113.754 2.055372 0.158988
5355.12 5355.12 2.530000 4.019115 115.185 2.069742 0.162998
5366.76 5366.76 2.560000 4.001212 118.368 2.165347 0.171883
5378.57 5378.57 2.600000 3.964363 120.573 2.288488 0.184018
5390.55 5390.55 2.640000 3.930281 122.923 2.413979 0.196923
5402.7 5402.7 2.680000 3.912061 124.858 2.497055 0.206726
5415.02 5415.02 2.710000 3.889825 126.351 2.583742 0.217912
5427.52 5427.52 2.750000 3.863417 128.067 2.688928 0.230626
5440.18 5440.18 2.790000 3.834577 130.152 2.812649 0.244745
5453.02 5453.02 2.830000 3.809246 132.441 2.935548 0.259642
5466.03 5466.03 2.860000 3.782814 134.554 3.062241 0.274742
5479.21 5479.21 2.900000 3.755283 137.594 3.218838 0.292983
5492.56 5492.56 2.940000 3.729709 140.45 3.370770 0.311436
5506.08 5506.08 2.980000 3.701564 143.365 3.538940 0.332466
5519.78 5519.78 3.010000 3.673831 146.301 3.712988 0.354083
5533.64 5533.64 3.050000 3.645753 149.94 3.913702 0.379185
5547.68 5547.68 3.090000 3.616038 153.237 4.120374 0.405804
5561.89 5561.89 3.130000 3.586617 156.649 4.337886 0.434018
5576.27 5576.27 3.160000 3.557564 159.542 4.548250 0.462239
5590.82 5590.82 3.200000 3.528096 162.938 4.783992 0.494169
5605.54 5605.54 3.240000 3.500331 166.241 5.018358 0.526126
5620.44 5620.44 3.280000 3.563431 169.606 4.806971 0.513485
5635.5 5635.5 3.310000 3.745083 171.408 4.051010 0.442575
5650.74 5650.74 3.350000 3.814216 174.665 3.852253 0.429690
5666.15 5666.15 3.390000 3.719485 178.344 4.324205 0.488335
5681.73 5681.73 3.430000 3.709680 183.092 4.483069 0.515072
5697.48 5697.48 3.460000 3.691052 186.634 4.655732 0.543732
5708.08 5708.08 3.490000 3.669967 189.071 4.817029 0.568564