Folder: webxdiviewer/xdidata/Ti (part 10)

File: Ti-K-Na2Ti3O7.xdi
# XDI/1.0 BlueSky/1.5.0
# Beamline.name: 6BM
# Beamline.xray_source: NSLS-II three-pole wiggler
# Beamline.collimation: paraboloid mirror, 5 nm Rh on 30 nm Pt
# Beamline.focusing: not in use
# Beamline.harmonic_rejection: flat mirror, Si stripe, pitch = 7.0 mrad relative to beam
# Detector.i0: 10 cm N2
# Detector.i1: 25 cm N2
# Detector.i2: 25 cm N2
# Element.symbol: Ti
# Element.edge: K
# Facility.name: NSLS-II
# Facility.energy: 3.0
# Facility.current: 219.4
# Facility.mode: top-off
# Facility.gup: 301027
# Facility.saf: 304156
# Mono.name: Si(111)
# Mono.d_spacing: 3.13526
# Mono.encoder_resolution: 0.0000050 deg/ct
# Mono.angle_offset: 16.0571 deg
# Mono.scan_mode: pseudo channel cut
# Mono.scan_type: step
# Mono.direction: forward in energy
# Sample.name: Na2Ti3O7
# Sample.prep: Powder in polyethylene glycol pellet
# Sample.x_position: -97.532 mm
# Sample.y_position: 117.543 mm
# Sample.wheel_position: -615.000 mm
# Scan.experimenters: Bruce Ravel, Martin Stennett
# Scan.edge_energy: 4966.0
# Scan.start_time: 2019-05-30T04:25:08
# Scan.end_time: 2019-05-30T05:08:07
# Scan.transient_id: 9791
# Scan.uid: 6c66a15e-738a-41e9-b3f1-0ee07b22b28b
# Scan.plot_hint: ln(I0/It)  --  ln($5/$6)
# Scan.sequence: merge of 3 scans
# Column.1: energy eV
# Column.2: requested_energy eV
# Column.3: measurement_time seconds
# Column.4: mutrans
# Column.5: i0
# Column.6: itrans
# Column.7: irefer
# /////
#  sample disk prepared by Martin
# -----
# energy   requested_energy   measurement_time   mutrans   i0   itrans   irefer
4766 4766 0.500000 3.272722 10.9583 0.415357 0.032736
4796.01 4796 0.500000 3.202833 11.6435 0.473275 0.038550
4826.01 4826 0.500000 3.134156 12.294 0.535243 0.045560
4856 4856 0.500000 3.067892 12.9705 0.603364 0.053188
4886 4886 0.500000 3.002622 13.6194 0.676294 0.062354
4916 4916 0.500000 2.938232 14.2184 0.752996 0.072388
4938 4938 0.500000 2.891858 14.6458 0.812449 0.080115
4944 4944 0.500000 2.880024 14.7797 0.829629 0.082148
4950.01 4950 0.500000 2.869304 14.8847 0.844534 0.084003
4956 4956 0.500000 2.858013 14.9717 0.859113 0.086030
4956.74 4956.75 0.500000 2.857457 14.9792 0.860028 0.086253
4957.5 4957.5 0.500000 2.856137 14.9883 0.861682 0.086532
4958.25 4958.25 0.500000 2.854421 14.9977 0.863707 0.086801
4958.99 4959 0.500000 2.853858 15.0063 0.864686 0.086762
4959.75 4959.75 0.500000 2.852739 15.0133 0.866055 0.086664
4960.49 4960.5 0.500000 2.851683 15.0575 0.869521 0.087066
4961.24 4961.25 0.500000 2.850805 15.0688 0.870937 0.087048
4962 4962 0.500000 2.850690 15.0812 0.871759 0.086569
4962.74 4962.75 0.500000 2.849920 15.0936 0.873147 0.086376
4963.5 4963.5 0.500000 2.850387 15.1106 0.873721 0.084692
4964.25 4964.25 0.500000 2.850994 15.1217 0.873833 0.079118
4965 4965 0.500000 2.853328 15.132 0.872393 0.064159
4965.75 4965.75 0.500000 2.858560 15.1391 0.868245 0.059199
4966.5 4966.5 0.500000 2.876749 15.15 0.853228 0.063988
4967.25 4967.25 0.500000 2.923012 15.1565 0.814936 0.063176
4968 4968 0.500000 2.939689 15.1729 0.802258 0.060548
4968.74 4968.75 0.500000 3.042242 15.1773 0.724975 0.052172
4969.5 4969.5 0.500000 3.122206 15.1826 0.668942 0.046398
4970.25 4970.25 0.500000 3.045934 15.1945 0.722561 0.049270
4971 4971 0.500000 3.006075 15.225 0.753425 0.050532
4971.75 4971.75 0.500000 2.992117 15.2399 0.764745 0.049457
4972.5 4972.5 0.500000 3.000186 15.2569 0.759470 0.045950
4973.25 4973.25 0.500000 2.993417 15.2643 0.764991 0.043654
4974 4974 0.500000 2.973071 15.2711 0.781048 0.041831
4974.75 4974.75 0.500000 2.965897 15.2755 0.786898 0.039786
4975.5 4975.5 0.500000 2.984826 15.2768 0.772223 0.037267
4976.25 4976.25 0.500000 3.026185 15.2788 0.741094 0.033841
4977 4977 0.500000 3.094619 15.2757 0.691803 0.030143
4977.75 4977.75 0.500000 3.166888 15.3182 0.645584 0.027604
4978.5 4978.5 0.500000 3.223332 15.328 0.610380 0.025461
4979.25 4979.25 0.500000 3.269282 15.3309 0.583067 0.023888
4980 4980 0.500000 3.320356 15.3269 0.553926 0.022556
4980.75 4980.75 0.500000 3.376249 15.3221 0.523639 0.021299
4981.5 4981.5 0.500000 3.438378 15.3224 0.492133 0.020165
4982.26 4982.25 0.500000 3.511461 15.327 0.457443 0.018453
4983 4983 0.500000 3.579794 15.3713 0.428633 0.017309
4983.75 4983.75 0.500000 3.632207 15.3655 0.406521 0.016597
4984.5 4984.5 0.500000 3.665634 15.365 0.393167 0.016267
4985.25 4985.25 0.500000 3.679663 15.3697 0.387801 0.016149
4986 4986 0.500000 3.680286 15.375 0.387696 0.016400
4986.75 4986.75 0.500000 3.676686 15.3686 0.388926 0.016775
4987.5 4987.5 0.500000 3.675830 15.3657 0.389186 0.016815
4988.25 4988.25 0.500000 3.679548 15.378 0.388056 0.016755
4989 4989 0.500000 3.687667 15.447 0.386649 0.016545
4989.75 4989.75 0.500000 3.694965 15.4848 0.384768 0.016786
4990.5 4990.5 0.500000 3.696687 15.5215 0.385020 0.016568
4991.25 4991.25 0.500000 3.685024 15.5575 0.390437 0.016855
4992 4992 0.500000 3.663803 15.5876 0.399565 0.017378
4992.75 4992.75 0.500000 3.640231 15.6114 0.409720 0.018028
4993.51 4993.5 0.500000 3.621902 15.6295 0.417820 0.018224
4994.25 4994.25 0.500000 3.611595 15.6454 0.422559 0.018400
4995 4995 0.500000 3.607615 15.6602 0.424649 0.018091
4995.75 4995.75 0.500000 3.605737 15.6693 0.425692 0.018248
4998.19 4998.18 0.730000 3.610619 22.8959 0.618992 0.024790
5001.59 5001.58 0.760000 3.628173 23.9376 0.635896 0.025342
5005.17 5005.16 0.800000 3.607265 25.3641 0.688028 0.027920
5008.91 5008.91 0.840000 3.537499 26.8216 0.780064 0.033750
5012.83 5012.83 0.880000 3.468655 28.2678 0.880779 0.039035
5016.94 5016.93 0.910000 3.464095 29.3941 0.920072 0.042041
5021.2 5021.19 0.950000 3.457906 30.8718 0.972339 0.045299
5025.64 5025.63 0.990000 3.437834 32.3702 1.040196 0.048135
5030.25 5030.24 1.030000 3.432334 33.8848 1.094866 0.050142
5035.02 5035.01 1.060000 3.435387 35.1569 1.132513 0.048771
5039.97 5039.97 1.100000 3.429519 36.7078 1.189420 0.049962
5045.09 5045.09 1.140000 3.415783 38.2788 1.257493 0.054271
5050.38 5050.38 1.180000 3.404536 39.8835 1.325022 0.060899
5055.84 5055.84 1.210000 3.407784 41.1765 1.363545 0.066001
5061.48 5061.48 1.250000 3.414013 42.9206 1.412467 0.068736
5067.29 5067.29 1.290000 3.405807 44.6162 1.480375 0.073495
5073.27 5073.27 1.330000 3.385164 46.3408 1.569655 0.079101
5079.42 5079.42 1.360000 3.359387 47.8153 1.661898 0.081327
5085.74 5085.74 1.400000 3.334037 49.6075 1.768446 0.082520
5092.23 5092.23 1.440000 3.307513 51.4241 1.882496 0.086055
5098.9 5098.9 1.480000 3.292931 53.294 1.979604 0.097397
5105.74 5105.74 1.510000 3.286448 54.819 2.049489 0.106929
5112.74 5112.74 1.550000 3.271435 56.7324 2.153095 0.113609
5119.92 5119.92 1.590000 3.256532 58.6787 2.260412 0.120072
5127.27 5127.27 1.630000 3.245224 60.6448 2.362705 0.127246
5134.79 5134.79 1.660000 3.230224 62.2987 2.463833 0.133838
5142.49 5142.49 1.700000 3.212426 64.4003 2.592674 0.138465
5150.35 5150.35 1.740000 3.196446 66.5301 2.721551 0.143916
5158.39 5158.39 1.780000 3.179888 68.6971 2.857142 0.155734
5166.6 5166.6 1.810000 3.162723 70.6381 2.988732 0.167611
5174.98 5174.98 1.850000 3.148082 72.8303 3.126931 0.181147
5183.53 5183.53 1.890000 3.133259 75.0946 3.272300 0.193804
5192.25 5192.25 1.930000 3.115309 77.4942 3.438018 0.205499
5201.14 5201.14 1.960000 3.095128 79.3127 3.590425 0.215164
5210.21 5210.21 2.000000 3.076113 81.6495 3.767159 0.226057
5219.45 5219.45 2.040000 3.058531 84.1808 3.952835 0.240219
5228.85 5228.85 2.080000 3.040530 86.6259 4.141551 0.255755
5238.43 5238.43 2.110000 3.022875 88.7158 4.317012 0.271915
5248.18 5248.18 2.150000 3.008217 90.6287 4.475212 0.289008
5258.11 5258.11 2.190000 2.993504 93.749 4.697910 0.309734
5268.2 5268.2 2.230000 2.975209 96.4744 4.923748 0.328992
5278.47 5278.47 2.260000 2.953449 97.6923 5.095575 0.343024
5288.9 5288.9 2.300000 2.933390 101.456 5.399142 0.367528
5299.51 5299.51 2.340000 2.915032 104.111 5.643008 0.390165
5310.29 5310.29 2.380000 2.896682 107.163 5.916031 0.415580
5321.24 5321.24 2.410000 2.878957 109.247 6.138967 0.438944
5332.36 5332.36 2.450000 2.858666 111.445 6.390870 0.465177
5343.66 5343.66 2.490000 2.838622 114.449 6.696009 0.497640
5355.12 5355.12 2.530000 2.817952 115.922 6.923797 0.522997
5366.76 5366.76 2.560000 2.795442 119.065 7.273414 0.556529
5378.57 5378.57 2.600000 2.774057 121.223 7.565319 0.586446
5390.55 5390.55 2.640000 2.753485 123.268 7.852842 0.619489
5402.7 5402.7 2.680000 2.732852 125.151 8.139050 0.652478
5415.02 5415.02 2.710000 2.711688 126.547 8.405851 0.686353
5427.52 5427.52 2.750000 2.689426 128.228 8.709259 0.724032
5440.18 5440.18 2.790000 2.667065 130.286 9.049074 0.766378
5453.02 5453.02 2.830000 2.644607 132.565 9.416534 0.810869
5466.03 5466.03 2.860000 2.622432 134.99 9.803760 0.856937
5479.21 5479.21 2.900000 2.600992 137.771 10.2226 0.908459
5492.56 5492.56 2.940000 2.578924 140.961 10.6928 0.965347
5506.08 5506.08 2.980000 2.556795 143.933 11.1625 1.024857
5519.78 5519.78 3.010000 2.535190 146.962 11.6462 1.087652
5533.64 5533.64 3.050000 2.513493 150.239 12.1671 1.155998
5547.68 5547.68 3.090000 2.491314 153.586 12.7171 1.229334
5561.89 5561.89 3.130000 2.469476 157.053 13.2913 1.306331
5576.27 5576.27 3.160000 2.447477 159.895 13.8328 1.382682
5590.81 5590.82 3.200000 2.425985 163.15 14.421 1.466037
5605.54 5605.54 3.240000 2.404704 166.251 15.0112 1.551652
5620.44 5620.44 3.280000 2.383288 169.73 15.6571 1.645704
5635.5 5635.5 3.310000 2.361398 171.063 16.1293 1.726245
5650.74 5650.74 3.350000 2.340211 174.462 16.8021 1.830005
5666.15 5666.15 3.390000 2.319590 178.221 17.5217 1.941739
5681.73 5681.73 3.430000 2.298036 182.936 18.3771 2.071827
5697.48 5697.48 3.460000 2.276261 185.802 19.0759 2.187796
5708.08 5708.08 3.490000 2.262316 188.071 19.5799 2.271675

File: Ti-K-Nd2Ti2O7.xdi
# XDI/1.0 BlueSky/1.5.0
# Beamline.name: 6BM
# Beamline.xray_source: NSLS-II three-pole wiggler
# Beamline.collimation: paraboloid mirror, 5 nm Rh on 30 nm Pt
# Beamline.focusing: not in use
# Beamline.harmonic_rejection: flat mirror, Si stripe, pitch = 7.0 mrad relative to beam
# Detector.i0: 10 cm N2
# Detector.i1: 25 cm N2
# Detector.i2: 25 cm N2
# Element.symbol: Ti
# Element.edge: K
# Facility.name: NSLS-II
# Facility.energy: 3.0
# Facility.current: 220.4
# Facility.mode: top-off
# Facility.gup: 301027
# Facility.saf: 304156
# Mono.name: Si(111)
# Mono.d_spacing: 3.13526
# Mono.encoder_resolution: 0.0000050 deg/ct
# Mono.angle_offset: 16.0571 deg
# Mono.scan_mode: pseudo channel cut
# Mono.scan_type: step
# Mono.direction: forward in energy
# Sample.name: Nd2Ti2O7
# Sample.prep: Powder in polyethylene glycol pellet
# Sample.x_position: -97.532 mm
# Sample.y_position: 117.543 mm
# Sample.wheel_position: -525.000 mm
# Scan.experimenters: Bruce Ravel, Martin Stennett
# Scan.edge_energy: 4966.0
# Scan.start_time: 2019-05-30T00:04:44
# Scan.end_time: 2019-05-30T00:47:57
# Scan.transient_id: 9773
# Scan.uid: 2ed10ec1-f110-4f87-8e39-c609e5f3e271
# Scan.plot_hint: ln(I0/It)  --  ln($5/$6)
# Scan.sequence: merge of 3 scans
# Column.1: energy eV
# Column.2: requested_energy eV
# Column.3: measurement_time seconds
# Column.4: mutrans
# Column.5: i0
# Column.6: itrans
# Column.7: irefer
# /////
#  sample disk prepared by Martin
# -----
# energy   requested_energy   measurement_time   mutrans   i0   itrans   irefer
4765.99 4766 0.500000 3.657538 11.0763 0.285852 0.023352
4796.01 4796 0.500000 3.602157 11.7352 0.319958 0.026797
4826.01 4826 0.500000 3.527610 12.432 0.365202 0.031744
4856 4856 0.500000 3.455355 13.1326 0.414668 0.037711
4886 4886 0.500000 3.386822 13.8077 0.466922 0.043675
4916 4916 0.500000 3.318688 14.4548 0.523265 0.050756
4938 4938 0.500000 3.270052 14.9148 0.566830 0.056805
4943.99 4944 0.500000 3.256986 15.026 0.578560 0.058099
4950.01 4950 0.500000 3.243544 15.1292 0.590425 0.059602
4956 4956 0.500000 3.230765 15.2213 0.601655 0.060892
4956.74 4956.75 0.500000 3.229074 15.2267 0.602888 0.061260
4957.49 4957.5 0.500000 3.227801 15.2402 0.604194 0.061147
4958.25 4958.25 0.500000 3.226099 15.2506 0.605632 0.061537
4958.99 4959 0.500000 3.225070 15.2612 0.606678 0.061561
4959.75 4959.75 0.500000 3.223134 15.2721 0.608287 0.061547
4960.5 4960.5 0.500000 3.221459 15.2839 0.609780 0.061911
4961.25 4961.25 0.500000 3.219145 15.2972 0.611721 0.061692
4962 4962 0.500000 3.218100 15.3116 0.612937 0.061693
4962.75 4962.75 0.500000 3.216396 15.322 0.614401 0.061272
4963.5 4963.5 0.500000 3.214860 15.3691 0.617238 0.060118
4964.25 4964.25 0.500000 3.213851 15.3849 0.618495 0.055264
4965 4965 0.500000 3.212393 15.3962 0.619849 0.044612
4965.75 4965.75 0.500000 3.211420 15.4058 0.620843 0.043394
4966.5 4966.5 0.500000 3.212162 15.414 0.620711 0.047860
4967.25 4967.25 0.500000 3.215512 15.4201 0.618884 0.048559
4968 4968 0.500000 3.215656 15.4665 0.620657 0.046765
4968.75 4968.75 0.500000 3.231263 15.4784 0.611525 0.044112
4969.5 4969.5 0.500000 3.231984 15.4751 0.610944 0.042682
4970.25 4970.25 0.500000 3.219304 15.4974 0.619619 0.042225
4971 4971 0.500000 3.213300 15.5239 0.624429 0.042094
4971.75 4971.75 0.500000 3.214211 15.5457 0.624730 0.040535
4972.5 4972.5 0.500000 3.218829 15.5749 0.623031 0.037736
4973.25 4973.25 0.500000 3.217550 15.6024 0.624923 0.035499
4974 4974 0.500000 3.214439 15.6091 0.627130 0.033737
4974.75 4974.75 0.500000 3.212387 15.6173 0.628761 0.031864
4975.5 4975.5 0.500000 3.211212 15.614 0.629364 0.030278
4976.25 4976.25 0.500000 3.211889 15.616 0.629019 0.028705
4977 4977 0.500000 3.215040 15.6157 0.627031 0.027641
4977.75 4977.75 0.500000 3.220828 15.6262 0.623842 0.026592
4978.5 4978.5 0.500000 3.228856 15.6271 0.618857 0.025849
4979.25 4979.25 0.500000 3.240296 15.629 0.611927 0.025271
4980 4980 0.500000 3.256584 15.6181 0.601603 0.024651
4980.75 4980.75 0.500000 3.275946 15.6137 0.589925 0.023712
4981.5 4981.5 0.500000 3.295041 15.6124 0.578700 0.023128
4982.25 4982.25 0.500000 3.311956 15.621 0.569296 0.022652
4983 4983 0.500000 3.329639 15.6222 0.559398 0.021979
4983.75 4983.75 0.500000 3.340518 15.6175 0.553143 0.021734
4984.5 4984.5 0.500000 3.339459 15.6142 0.553616 0.022409
4985.25 4985.25 0.500000 3.332024 15.6222 0.558035 0.022733
4986 4986 0.500000 3.322226 15.6197 0.563449 0.022970
4986.75 4986.75 0.500000 3.313878 15.6127 0.567895 0.023532
4987.5 4987.5 0.500000 3.307229 15.609 0.571564 0.023576
4988.25 4988.25 0.500000 3.302059 15.6202 0.574941 0.023867
4989 4989 0.500000 3.297409 15.6521 0.578795 0.024215
4989.75 4989.75 0.500000 3.294338 15.6901 0.581989 0.024104
4990.5 4990.5 0.500000 3.292245 15.7262 0.584544 0.024505
4991.25 4991.25 0.500000 3.293144 15.76 0.585277 0.024586
4992 4992 0.500000 3.295636 15.7812 0.584607 0.024414
4992.75 4992.75 0.500000 3.298534 15.8031 0.583727 0.024636
4993.5 4993.5 0.500000 3.302004 15.8187 0.582273 0.024641
4994.25 4994.25 0.500000 3.304352 15.8672 0.582693 0.024562
4995 4995 0.500000 3.305895 15.8765 0.582131 0.024296
4995.75 4995.75 0.500000 3.306836 15.8828 0.581817 0.023845
4998.18 4998.18 0.730000 3.302885 23.2471 0.854942 0.033355
5001.59 5001.58 0.760000 3.285378 24.3027 0.909554 0.035223
5005.17 5005.16 0.800000 3.266480 25.7505 0.982126 0.038672
5008.92 5008.91 0.840000 3.252694 27.227 1.052862 0.044505
5012.84 5012.83 0.880000 3.232924 28.7261 1.133011 0.049416
5016.94 5016.93 0.910000 3.220255 29.8743 1.193325 0.053520
5021.2 5021.19 0.950000 3.211225 31.3768 1.264714 0.058009
5025.63 5025.63 0.990000 3.203156 32.8857 1.336278 0.061375
5030.24 5030.24 1.030000 3.193448 34.407 1.411720 0.063302
5035.01 5035.01 1.060000 3.184123 35.6052 1.474564 0.062349
5039.96 5039.97 1.100000 3.177394 37.1608 1.549378 0.063793
5045.09 5045.09 1.140000 3.167261 38.7321 1.631357 0.069570
5050.38 5050.38 1.180000 3.158024 40.3237 1.714147 0.077342
5055.83 5055.84 1.210000 3.148782 41.6034 1.784958 0.084959
5061.48 5061.48 1.250000 3.139017 43.2503 1.873840 0.089984
5067.29 5067.29 1.290000 3.127673 44.9305 1.968853 0.096437
5073.27 5073.27 1.330000 3.114223 46.6469 2.071735 0.102825
5079.42 5079.42 1.360000 3.099887 48.0265 2.163802 0.104259
5085.74 5085.74 1.400000 3.082684 49.7884 2.282088 0.105002
5092.23 5092.23 1.440000 3.066939 51.6891 2.406818 0.108731
5098.9 5098.9 1.480000 3.053865 53.5754 2.527499 0.122844
5105.74 5105.74 1.510000 3.039908 55.0845 2.635216 0.136373
5112.74 5112.74 1.550000 3.026558 56.9641 2.761737 0.144079
5119.92 5119.92 1.590000 3.012685 59.0034 2.900581 0.152463
5127.27 5127.27 1.630000 2.997607 60.9691 3.042753 0.162464
5134.79 5134.79 1.660000 2.982571 62.614 3.172167 0.170510
5142.49 5142.49 1.700000 2.968039 64.8124 3.331616 0.176790
5150.35 5150.35 1.740000 2.953127 66.8981 3.490498 0.183294
5158.39 5158.39 1.780000 2.937177 69.0018 3.658155 0.198131
5166.6 5166.6 1.810000 2.921117 70.7457 3.811314 0.212694
5174.98 5174.98 1.850000 2.904112 72.8514 3.992063 0.230190
5183.53 5183.53 1.890000 2.886760 75.0327 4.183557 0.246522
5192.25 5192.25 1.930000 2.869568 77.2014 4.379122 0.260335
5201.14 5201.14 1.960000 2.852109 78.9331 4.556197 0.271689
5210.21 5210.21 2.000000 2.834986 81.1735 4.766465 0.284558
5219.44 5219.45 2.040000 2.817853 83.4851 4.986879 0.301873
5228.85 5228.85 2.080000 2.800085 85.8505 5.220127 0.321060
5238.43 5238.43 2.110000 2.782554 88.1046 5.451940 0.342589
5248.18 5248.18 2.150000 2.764890 89.9608 5.665999 0.364823
5258.11 5258.11 2.190000 2.746861 93.4337 5.991789 0.394001
5268.2 5268.2 2.230000 2.728577 96.1827 6.281891 0.418843
5278.47 5278.47 2.260000 2.710532 97.6702 6.495206 0.436223
5288.9 5288.9 2.300000 2.692562 101.528 6.874186 0.466196
5299.51 5299.51 2.340000 2.673903 104.305 7.195242 0.496795
5310.29 5310.29 2.380000 2.654597 107.196 7.538839 0.528811
5321.24 5321.24 2.410000 2.635421 109.43 7.844923 0.559313
5332.36 5332.36 2.450000 2.615746 111.755 8.170763 0.593760
5343.66 5343.66 2.490000 2.596585 114.576 8.539133 0.633088
5355.12 5355.12 2.530000 2.576277 116.225 8.839654 0.666584
5366.76 5366.76 2.560000 2.557791 119.043 9.222954 0.704471
5378.57 5378.57 2.600000 2.537410 121.287 9.590235 0.742625
5390.55 5390.55 2.640000 2.517396 123.271 9.944155 0.782685
5402.7 5402.7 2.680000 2.497673 124.999 10.2845 0.823389
5415.02 5415.02 2.710000 2.477739 126.322 10.6026 0.864787
5427.52 5427.52 2.750000 2.458239 127.691 10.9285 0.907864
5440.18 5440.18 2.790000 2.438483 129.646 11.3172 0.956925
5453.02 5453.02 2.830000 2.418497 131.524 11.7129 1.007329
5466.03 5466.03 2.860000 2.398463 133.414 12.1217 1.059198
5479.21 5479.21 2.900000 2.378642 136.075 12.6109 1.119625
5492.56 5492.56 2.940000 2.360319 138.767 13.0983 1.182300
5506.08 5506.08 2.980000 2.339850 141.595 13.6416 1.252247
5519.78 5519.78 3.010000 2.320355 144.215 14.1675 1.322699
5533.64 5533.64 3.050000 2.300472 147.867 14.8179 1.407319
5547.68 5547.68 3.090000 2.280145 150.945 15.437 1.491760
5561.89 5561.89 3.130000 2.259915 154.204 16.0926 1.581505
5576.27 5576.27 3.160000 2.239370 157.108 16.736 1.672793
5590.82 5590.82 3.200000 2.218920 160.665 17.4686 1.775629
5605.54 5605.54 3.240000 2.198497 163.778 18.1744 1.878959
5620.44 5620.44 3.280000 2.177783 166.852 18.9031 1.988333
5635.5 5635.5 3.310000 2.157051 168.118 19.4454 2.081853
5650.74 5650.74 3.350000 2.136199 170.904 20.1842 2.198472
5666.15 5666.15 3.390000 2.114496 174.173 21.0217 2.330330
5681.73 5681.73 3.430000 2.093617 178.048 21.9429 2.474775
5697.48 5697.48 3.460000 2.072517 181.135 22.7992 2.616456
5708.08 5708.08 3.490000 2.058446 183.155 23.3802 2.714109