Folder: webxdiviewer/xdidata/Ti (part 9)

File: Ti-K-Gd2TiO5.xdi
# XDI/1.0 BlueSky/1.5.0
# Beamline.name: 6BM
# Beamline.xray_source: NSLS-II three-pole wiggler
# Beamline.collimation: paraboloid mirror, 5 nm Rh on 30 nm Pt
# Beamline.focusing: not in use
# Beamline.harmonic_rejection: flat mirror, Si stripe, pitch = 7.0 mrad relative to beam
# Detector.i0: 10 cm N2
# Detector.i1: 25 cm N2
# Detector.i2: 25 cm N2
# Element.symbol: Ti
# Element.edge: K
# Facility.name: NSLS-II
# Facility.energy: 3.0
# Facility.current: 220.2
# Facility.mode: top-off
# Facility.gup: 301027
# Facility.saf: 304156
# Mono.name: Si(111)
# Mono.d_spacing: 3.13526
# Mono.encoder_resolution: 0.0000050 deg/ct
# Mono.angle_offset: 16.0571 deg
# Mono.scan_mode: pseudo channel cut
# Mono.scan_type: step
# Mono.direction: forward in energy
# Sample.name: Gd2TiO5
# Sample.prep: Powder in polyethylene glycol pellet
# Sample.x_position: -97.532 mm
# Sample.y_position: 117.543 mm
# Sample.wheel_position: -660.000 mm
# Scan.experimenters: Bruce Ravel, Martin Stennett
# Scan.edge_energy: 4966.0
# Scan.start_time: 2019-05-30T06:34:57
# Scan.end_time: 2019-05-30T07:18:04
# Scan.transient_id: 9800
# Scan.uid: ab891910-b780-46a3-beb0-4f663fd13232
# Scan.plot_hint: ln(I0/It)  --  ln($5/$6)
# Scan.sequence: merge of 3 scans
# Column.1: energy eV
# Column.2: requested_energy eV
# Column.3: measurement_time seconds
# Column.4: mutrans
# Column.5: i0
# Column.6: itrans
# Column.7: irefer
# /////
#  sample disk prepared by Martin
# -----
# energy   requested_energy   measurement_time   mutrans   i0   itrans   irefer
4766 4766 0.500000 4.178798 11.0034 0.168569 0.014305
4796.01 4796 0.500000 4.111993 11.6266 0.190387 0.016500
4826.01 4826 0.500000 4.027908 12.2704 0.218557 0.019635
4856 4856 0.500000 3.947003 12.9494 0.250081 0.023219
4886.01 4886 0.500000 3.865883 13.5968 0.284778 0.027364
4916 4916 0.500000 3.786864 14.1915 0.321673 0.032056
4938 4938 0.500000 3.730444 14.6165 0.350538 0.035576
4944.01 4944 0.500000 3.715927 14.7188 0.358152 0.036245
4950 4950 0.500000 3.699902 14.8208 0.366458 0.037960
4956 4956 0.500000 3.686049 14.9122 0.373861 0.038506
4956.74 4956.75 0.500000 3.683513 14.9179 0.374955 0.038593
4957.5 4957.5 0.500000 3.682290 14.9314 0.375754 0.038747
4958.24 4958.25 0.500000 3.679699 14.9471 0.377124 0.038844
4959 4959 0.500000 3.678259 14.9773 0.378433 0.039143
4959.75 4959.75 0.500000 3.676266 14.9844 0.379367 0.039134
4960.49 4960.5 0.500000 3.674010 14.9961 0.380517 0.039052
4961.25 4961.25 0.500000 3.672865 15.0087 0.381275 0.039050
4962 4962 0.500000 3.671544 15.0208 0.382088 0.038976
4962.75 4962.75 0.500000 3.670133 15.033 0.382937 0.038487
4963.5 4963.5 0.500000 3.667522 15.0466 0.384286 0.038499
4964.25 4964.25 0.500000 3.666556 15.0939 0.385866 0.036163
4964.99 4965 0.500000 3.665657 15.101 0.386395 0.029882
4965.75 4965.75 0.500000 3.664814 15.1163 0.387113 0.027283
4966.5 4966.5 0.500000 3.667922 15.1233 0.386089 0.029877
4967.25 4967.25 0.500000 3.680672 15.1303 0.381368 0.030623
4968 4968 0.500000 3.706310 15.1439 0.372050 0.029204
4968.75 4968.75 0.500000 3.719453 15.1502 0.367356 0.027208
4969.5 4969.5 0.500000 3.679571 15.1548 0.382357 0.027536
4970.25 4970.25 0.500000 3.665618 15.164 0.388017 0.027195
4971 4971 0.500000 3.664923 15.2246 0.389844 0.026973
4971.75 4971.75 0.500000 3.664008 15.2428 0.390666 0.026071
4972.5 4972.5 0.500000 3.665101 15.2551 0.390556 0.024435
4973.25 4973.25 0.500000 3.664882 15.2652 0.390900 0.023392
4974 4974 0.500000 3.664448 15.274 0.391293 0.021737
4974.75 4974.75 0.500000 3.666226 15.2786 0.390718 0.020893
4975.5 4975.5 0.500000 3.669020 15.2799 0.389660 0.019646
4976.25 4976.25 0.500000 3.669771 15.2777 0.389310 0.018579
4977 4977 0.500000 3.670774 15.2806 0.388995 0.017672
4977.75 4977.75 0.500000 3.674231 15.2898 0.387882 0.017028
4978.5 4978.5 0.500000 3.679655 15.2958 0.385942 0.016803
4979.25 4979.25 0.500000 3.688606 15.2959 0.382498 0.016161
4980 4980 0.500000 3.695488 15.2915 0.379769 0.016081
4980.75 4980.75 0.500000 3.705191 15.2835 0.375909 0.015988
4981.5 4981.5 0.500000 3.721285 15.2846 0.369943 0.015322
4982.25 4982.25 0.500000 3.743767 15.2897 0.361802 0.015057
4983 4983 0.500000 3.759610 15.2955 0.356280 0.014674
4983.75 4983.75 0.500000 3.765683 15.2903 0.354000 0.014555
4984.5 4984.5 0.500000 3.769745 15.289 0.352536 0.014529
4985.25 4985.25 0.500000 3.768658 15.2944 0.353042 0.014764
4986 4986 0.500000 3.763119 15.2981 0.355090 0.015205
4986.75 4986.75 0.500000 3.755270 15.2936 0.357777 0.015554
4987.5 4987.5 0.500000 3.748033 15.3159 0.360907 0.015727
4988.25 4988.25 0.500000 3.745037 15.3265 0.362238 0.015643
4989 4989 0.500000 3.744793 15.355 0.363000 0.015696
4989.75 4989.75 0.500000 3.746092 15.3895 0.363344 0.015982
4990.5 4990.5 0.500000 3.747734 15.4288 0.363675 0.015960
4991.26 4991.25 0.500000 3.750004 15.4617 0.363620 0.015842
4992 4992 0.500000 3.749546 15.4905 0.364465 0.016165
4992.75 4992.75 0.500000 3.749465 15.5108 0.364973 0.016202
4993.5 4993.5 0.500000 3.752029 15.5619 0.365235 0.016098
4994.25 4994.25 0.500000 3.754994 15.5749 0.364466 0.016237
4995 4995 0.500000 3.758033 15.5866 0.363629 0.015742
4995.75 4995.75 0.500000 3.759985 15.6029 0.363301 0.015387
4998.18 4998.18 0.730000 3.750253 22.7839 0.535679 0.021908
5001.59 5001.58 0.760000 3.732619 23.8478 0.570677 0.023073
5005.16 5005.16 0.800000 3.715386 25.2913 0.615738 0.025130
5008.91 5008.91 0.840000 3.698377 26.7463 0.662334 0.029052
5012.83 5012.83 0.880000 3.680543 28.1864 0.710557 0.032086
5016.94 5016.93 0.910000 3.666973 29.3122 0.749041 0.034573
5021.19 5021.19 0.950000 3.650530 30.7856 0.799721 0.037827
5025.63 5025.63 0.990000 3.638532 32.2857 0.848816 0.040087
5030.25 5030.24 1.030000 3.624912 33.8046 0.900947 0.041712
5035.02 5035.01 1.060000 3.613057 35.006 0.944098 0.041248
5039.97 5039.97 1.100000 3.606068 36.5621 0.992968 0.042240
5045.09 5045.09 1.140000 3.599610 38.1428 1.042613 0.045429
5050.38 5050.38 1.180000 3.591116 39.755 1.095951 0.050724
5055.84 5055.84 1.210000 3.578628 41.0596 1.146129 0.055972
5061.48 5061.48 1.250000 3.568803 42.7385 1.204781 0.059286
5067.29 5067.29 1.290000 3.559916 44.4443 1.264050 0.063172
5073.27 5073.27 1.330000 3.544899 46.1842 1.333410 0.067704
5079.42 5079.42 1.360000 3.527093 47.6941 1.401744 0.069166
5085.74 5085.74 1.400000 3.509983 49.4759 1.479212 0.069503
5092.23 5092.23 1.440000 3.493154 51.2986 1.559723 0.072116
5098.9 5098.9 1.480000 3.476780 53.3053 1.647505 0.081592
5105.74 5105.74 1.510000 3.462057 54.8862 1.721515 0.090606
5112.74 5112.74 1.550000 3.447052 56.8944 1.811474 0.096209
5119.92 5119.92 1.590000 3.432117 58.8547 1.902099 0.101777
5127.27 5127.27 1.630000 3.416106 60.8527 1.998389 0.108186
5134.79 5134.79 1.660000 3.400051 62.5281 2.086664 0.114107
5142.49 5142.49 1.700000 3.384413 64.6468 2.191373 0.117903
5150.35 5150.35 1.740000 3.369133 66.7823 2.298608 0.122501
5158.39 5158.39 1.780000 3.353264 68.9509 2.411210 0.132456
5166.6 5166.6 1.810000 3.335515 70.7453 2.518272 0.142373
5174.98 5174.98 1.850000 3.316870 72.9219 2.644607 0.154232
5183.53 5183.53 1.890000 3.298709 75.1469 2.775239 0.165011
5192.25 5192.25 1.930000 3.279546 77.3606 2.912264 0.174748
5201.14 5201.14 1.960000 3.260957 79.1513 3.035577 0.182710
5210.21 5210.21 2.000000 3.242661 81.6627 3.189722 0.192202
5219.45 5219.45 2.040000 3.224281 83.9862 3.341338 0.203963
5228.85 5228.85 2.080000 3.204714 86.4044 3.505476 0.217564
5238.43 5238.43 2.110000 3.185350 88.6526 3.666990 0.231977
5248.18 5248.18 2.150000 3.165777 90.7986 3.830011 0.247948
5258.11 5258.11 2.190000 3.146261 93.8966 4.038742 0.266915
5268.2 5268.2 2.230000 3.126890 96.6194 4.237147 0.283942
5278.47 5278.47 2.260000 3.107328 97.7682 4.372232 0.295587
5288.9 5288.9 2.300000 3.086546 101.594 4.638705 0.316040
5299.51 5299.51 2.340000 3.065696 104.243 4.859945 0.336967
5310.29 5310.29 2.380000 3.044219 107.016 5.097545 0.359004
5321.24 5321.24 2.410000 3.023356 109.092 5.305976 0.379746
5332.36 5332.36 2.450000 3.001955 111.275 5.529239 0.403075
5343.66 5343.66 2.490000 2.981490 114 5.781781 0.430162
5355.12 5355.12 2.530000 2.959742 115.426 5.982792 0.452893
5366.76 5366.76 2.560000 2.937090 118.61 6.288645 0.482021
5378.57 5378.57 2.600000 2.914891 120.767 6.546780 0.508536
5390.55 5390.55 2.640000 2.892950 123.206 6.827139 0.538910
5402.7 5402.7 2.680000 2.871053 125.385 7.101687 0.570539
5415.02 5415.02 2.710000 2.849213 126.813 7.341193 0.600301
5427.52 5427.52 2.750000 2.826995 128.517 7.606967 0.633007
5440.18 5440.18 2.790000 2.804572 130.586 7.904726 0.669444
5453.02 5453.02 2.830000 2.781645 132.853 8.228472 0.708492
5466.03 5466.03 2.860000 2.759338 134.894 8.543343 0.747773
5479.21 5479.21 2.900000 2.737032 137.597 8.911122 0.792583
5492.56 5492.56 2.940000 2.714980 140.315 9.289677 0.838964
5506.08 5506.08 2.980000 2.692772 143.198 9.693485 0.890413
5519.78 5519.78 3.010000 2.670087 146.151 10.1204 0.945513
5533.64 5533.64 3.050000 2.647357 149.486 10.5892 1.006169
5547.68 5547.68 3.090000 2.624539 153.014 11.0894 1.072207
5561.89 5561.89 3.130000 2.601926 156.905 11.6314 1.143133
5576.27 5576.27 3.160000 2.579290 159.81 12.1181 1.211576
5590.82 5590.82 3.200000 2.556492 163.195 12.6601 1.286575
5605.54 5605.54 3.240000 2.533228 166.453 13.2168 1.366090
5620.44 5620.44 3.280000 2.510056 169.763 13.7956 1.450535
5635.5 5635.5 3.310000 2.487675 171.261 14.2323 1.523040
5650.74 5650.74 3.350000 2.463596 174.284 14.8365 1.615481
5666.15 5666.15 3.390000 2.440685 177.887 15.4942 1.716438
5681.73 5681.73 3.430000 2.417741 182.561 16.2703 1.833761
5697.48 5697.48 3.460000 2.394938 185.495 16.9131 1.939778
5708.08 5708.08 3.490000 2.379419 188.144 17.4229 2.021311

File: Ti-K-Gd2TiO7.xdi
# XDI/1.0 BlueSky/1.5.0
# Beamline.name: 6BM
# Beamline.xray_source: NSLS-II three-pole wiggler
# Beamline.collimation: paraboloid mirror, 5 nm Rh on 30 nm Pt
# Beamline.focusing: not in use
# Beamline.harmonic_rejection: flat mirror, Si stripe, pitch = 7.0 mrad relative to beam
# Detector.i0: 10 cm N2
# Detector.i1: 25 cm N2
# Detector.i2: 25 cm N2
# Element.symbol: Ti
# Element.edge: K
# Facility.name: NSLS-II
# Facility.energy: 3.0
# Facility.current: 220.7
# Facility.mode: top-off
# Facility.gup: 301027
# Facility.saf: 304156
# Mono.name: Si(111)
# Mono.d_spacing: 3.13526
# Mono.encoder_resolution: 0.0000050 deg/ct
# Mono.angle_offset: 16.0571 deg
# Mono.scan_mode: pseudo channel cut
# Mono.scan_type: step
# Mono.direction: forward in energy
# Sample.name: Gd2TiO7
# Sample.prep: Powder in polyethylene glycol pellet
# Sample.x_position: -97.532 mm
# Sample.y_position: 117.543 mm
# Sample.wheel_position: -540.000 mm
# Scan.experimenters: Bruce Ravel, Martin Stennett
# Scan.edge_energy: 4966.0
# Scan.start_time: 2019-05-30T00:48:23
# Scan.end_time: 2019-05-30T01:31:10
# Scan.transient_id: 9776
# Scan.uid: 1c7c8df0-bf40-4247-b882-4646854c3fcf
# Scan.plot_hint: ln(I0/It)  --  ln($5/$6)
# Scan.sequence: merge of 3 scans
# Column.1: energy eV
# Column.2: requested_energy eV
# Column.3: measurement_time seconds
# Column.4: mutrans
# Column.5: i0
# Column.6: itrans
# Column.7: irefer
# /////
#  sample disk prepared by Martin
# -----
# energy   requested_energy   measurement_time   mutrans   i0   itrans   irefer
4765.99 4766 0.500000 3.614345 11.0791 0.298515 0.024497
4796.01 4796 0.500000 3.570270 11.7438 0.330568 0.027797
4826.01 4826 0.500000 3.498258 12.4321 0.376071 0.032863
4856 4856 0.500000 3.427125 13.1212 0.426170 0.038153
4886 4886 0.500000 3.357640 13.7912 0.480171 0.044851
4916 4916 0.500000 3.289018 14.4223 0.537811 0.052287
4938 4938 0.500000 3.239896 14.8737 0.582570 0.058035
4944 4944 0.500000 3.226706 14.9801 0.594533 0.059452
4950 4950 0.500000 3.212811 15.0851 0.607072 0.061478
4956 4956 0.500000 3.199337 15.1731 0.618905 0.062740
4956.74 4956.75 0.500000 3.198122 15.1793 0.619905 0.062719
4957.5 4957.5 0.500000 3.196056 15.1881 0.621545 0.062926
4958.24 4958.25 0.500000 3.194462 15.2315 0.624316 0.063306
4959 4959 0.500000 3.193058 15.2406 0.625569 0.063476
4959.75 4959.75 0.500000 3.191429 15.2483 0.626908 0.063435
4960.5 4960.5 0.500000 3.189416 15.2592 0.628621 0.063580
4961.25 4961.25 0.500000 3.187685 15.2772 0.630447 0.063709
4962 4962 0.500000 3.186045 15.2864 0.631868 0.063406
4962.75 4962.75 0.500000 3.184258 15.2955 0.633371 0.063109
4963.5 4963.5 0.500000 3.182689 15.3103 0.634974 0.061959
4964.25 4964.25 0.500000 3.181870 15.322 0.635984 0.057105
4965 4965 0.500000 3.180262 15.3326 0.637445 0.046143
4965.75 4965.75 0.500000 3.178844 15.3408 0.638693 0.044492
4966.5 4966.5 0.500000 3.178293 15.3525 0.639534 0.049085
4967.25 4967.25 0.500000 3.178662 15.3528 0.639307 0.050027
4968 4968 0.500000 3.176628 15.3637 0.641063 0.048396
4968.75 4968.75 0.500000 3.177588 15.3795 0.641111 0.046249
4969.5 4969.5 0.500000 3.180638 15.3751 0.638977 0.044481
4970.25 4970.25 0.500000 3.178867 15.3955 0.640957 0.043972
4971 4971 0.500000 3.175336 15.4233 0.644385 0.043131
4971.75 4971.75 0.500000 3.172895 15.4407 0.646687 0.041603
4972.5 4972.5 0.500000 3.174977 15.4929 0.647527 0.039081
4973.25 4973.25 0.500000 3.176554 15.5009 0.646841 0.036870
4974 4974 0.500000 3.178012 15.5081 0.646200 0.034738
4974.75 4974.75 0.500000 3.176199 15.5124 0.647549 0.033128
4975.5 4975.5 0.500000 3.173497 15.5118 0.649278 0.031189
4976.25 4976.25 0.500000 3.172233 15.5118 0.650096 0.029516
4977 4977 0.500000 3.173009 15.5192 0.649902 0.028303
4977.75 4977.75 0.500000 3.176776 15.5579 0.649075 0.027442
4978.5 4978.5 0.500000 3.178818 15.5655 0.648065 0.027198
4979.25 4979.25 0.500000 3.181585 15.5646 0.646241 0.026593
4980 4980 0.500000 3.186393 15.556 0.642782 0.025980
4980.75 4980.75 0.500000 3.195078 15.5461 0.636818 0.025426
4981.5 4981.5 0.500000 3.207878 15.5497 0.628846 0.024929
4982.25 4982.25 0.500000 3.226180 15.554 0.617606 0.024545
4983 4983 0.500000 3.242471 15.5573 0.607799 0.023558
4983.75 4983.75 0.500000 3.252732 15.5472 0.601189 0.023621
4984.5 4984.5 0.500000 3.258761 15.5535 0.597815 0.023633
4985.25 4985.25 0.500000 3.255520 15.5524 0.599735 0.024131
4986 4986 0.500000 3.245014 15.5504 0.605973 0.024746
4986.75 4986.75 0.500000 3.236187 15.5788 0.612459 0.025030
4987.5 4987.5 0.500000 3.229298 15.5783 0.616669 0.025365
4988.25 4988.25 0.500000 3.224133 15.5877 0.620233 0.025715
4989 4989 0.500000 3.221785 15.6179 0.622904 0.025661
4989.75 4989.75 0.500000 3.222485 15.6561 0.623989 0.025844
4990.5 4990.5 0.500000 3.227097 15.6913 0.622518 0.026007
4991.25 4991.25 0.500000 3.231076 15.7228 0.621282 0.025904
4992 4992 0.500000 3.233381 15.7472 0.620818 0.026014
4992.75 4992.75 0.500000 3.232966 15.7676 0.621880 0.026135
4993.5 4993.5 0.500000 3.230209 15.7795 0.624072 0.026130
4994.25 4994.25 0.500000 3.227201 15.7921 0.626442 0.026312
4995 4995 0.500000 3.225749 15.8078 0.627982 0.026115
4995.75 4995.75 0.500000 3.224386 15.8145 0.629103 0.025701
4998.18 4998.18 0.730000 3.216615 23.0956 0.925899 0.035840
5001.59 5001.58 0.760000 3.201042 24.144 0.983135 0.037759
5005.16 5005.16 0.800000 3.200785 25.5765 1.041735 0.040908
5008.92 5008.91 0.840000 3.177817 27.0452 1.127142 0.047420
5012.84 5012.83 0.880000 3.155883 28.5 1.214128 0.052844
5016.94 5016.93 0.910000 3.148089 29.692 1.274800 0.056830
5021.2 5021.19 0.950000 3.138404 31.1747 1.351487 0.061494
5025.63 5025.63 0.990000 3.126454 32.6756 1.433580 0.065652
5030.24 5030.24 1.030000 3.120765 34.1876 1.508463 0.067089
5035.01 5035.01 1.060000 3.111194 35.3887 1.576486 0.066024
5039.97 5039.97 1.100000 3.102742 37.0221 1.663250 0.068316
5045.09 5045.09 1.140000 3.094771 38.5927 1.747692 0.074096
5050.38 5050.38 1.180000 3.088168 40.1866 1.831928 0.082449
5055.84 5055.84 1.210000 3.075343 41.4667 1.914670 0.090861
5061.48 5061.48 1.250000 3.065717 43.1088 2.009760 0.095993
5067.29 5067.29 1.290000 3.052896 44.7852 2.114861 0.103129
5073.27 5073.27 1.330000 3.037692 46.5833 2.233464 0.110007
5079.42 5079.42 1.360000 3.023697 47.9713 2.332426 0.112124
5085.74 5085.74 1.400000 3.008884 49.7439 2.454707 0.112477
5092.22 5092.23 1.440000 2.993138 51.5694 2.585150 0.116570
5098.9 5098.9 1.480000 2.980134 53.4403 2.714034 0.131109
5105.74 5105.74 1.510000 2.966437 54.9621 2.829822 0.145916
5112.74 5112.74 1.550000 2.951989 56.8561 2.969925 0.154430
5119.92 5119.92 1.590000 2.938345 58.7909 3.113192 0.163113
5127.27 5127.27 1.630000 2.926174 60.7663 3.257172 0.173525
5134.79 5134.79 1.660000 2.911337 62.493 3.399822 0.182399
5142.49 5142.49 1.700000 2.897286 64.6438 3.566567 0.188181
5150.35 5150.35 1.740000 2.881826 66.7442 3.739840 0.195657
5158.39 5158.39 1.780000 2.864693 68.8812 3.926291 0.212143
5166.6 5166.6 1.810000 2.848705 70.6699 4.093165 0.227539
5174.98 5174.98 1.850000 2.833513 72.9778 4.291531 0.246625
5183.53 5183.53 1.890000 2.816537 75.2004 4.497936 0.264029
5192.25 5192.25 1.930000 2.799816 77.4162 4.708551 0.278700
5201.14 5201.14 1.960000 2.782865 79.1993 4.899367 0.291604
5210.21 5210.21 2.000000 2.765898 81.6711 5.138734 0.306249
5219.45 5219.45 2.040000 2.749080 84.025 5.376474 0.324527
5228.85 5228.85 2.080000 2.733234 86.3968 5.616530 0.344740
5238.43 5238.43 2.110000 2.716933 88.4515 5.844615 0.365661
5248.18 5248.18 2.150000 2.699763 90.3104 6.070782 0.389697
5258.11 5258.11 2.190000 2.682340 93.5479 6.398937 0.419553
5268.2 5268.2 2.230000 2.664053 96.2989 6.708694 0.445613
5278.47 5278.47 2.260000 2.646025 97.9141 6.945328 0.465542
5288.9 5288.9 2.300000 2.628470 101.556 7.331178 0.495860
5299.51 5299.51 2.340000 2.610548 104.301 7.665547 0.528074
5310.29 5310.29 2.380000 2.592073 107.172 8.023380 0.561001
5321.24 5321.24 2.410000 2.573949 109.495 8.347270 0.594123
5332.36 5332.36 2.450000 2.555001 111.875 8.691784 0.630544
5343.66 5343.66 2.490000 2.535627 114.714 9.086719 0.672496
5355.12 5355.12 2.530000 2.518255 116.458 9.386535 0.707073
5366.76 5366.76 2.560000 2.500304 119.379 9.796227 0.747449
5378.57 5378.57 2.600000 2.482126 121.53 10.1557 0.784921
5390.55 5390.55 2.640000 2.463144 123.519 10.5197 0.826923
5402.7 5402.7 2.680000 2.443864 125.293 10.8785 0.870545
5415.02 5415.02 2.710000 2.425351 126.386 11.1785 0.910566
5427.52 5427.52 2.750000 2.406814 128.056 11.5381 0.956980
5440.18 5440.18 2.790000 2.388200 129.777 11.9128 1.006009
5453.02 5453.02 2.830000 2.369348 131.651 12.3148 1.057463
5466.03 5466.03 2.860000 2.349971 133.507 12.7328 1.110712
5479.21 5479.21 2.900000 2.330825 136.276 13.2482 1.174717
5492.56 5492.56 2.940000 2.310825 138.845 13.7706 1.242305
5506.08 5506.08 2.980000 2.291028 141.924 14.3574 1.315951
5519.78 5519.78 3.010000 2.271467 144.553 14.9122 1.390548
5533.64 5533.64 3.050000 2.251919 147.823 15.5505 1.475476
5547.68 5547.68 3.090000 2.232074 150.93 16.1956 1.563315
5561.89 5561.89 3.130000 2.211926 154.2 16.8833 1.657187
5576.27 5576.27 3.160000 2.191787 156.866 17.5246 1.749319
5590.82 5590.82 3.200000 2.171676 160.433 18.2872 1.856689
5605.54 5605.54 3.240000 2.151530 163.619 19.0299 1.965424
5620.44 5620.44 3.280000 2.131308 166.727 19.7874 2.079131
5635.5 5635.5 3.310000 2.111164 168.071 20.353 2.177169
5650.74 5650.74 3.350000 2.091223 171.437 21.1787 2.305091
5666.15 5666.15 3.390000 2.070997 175.258 22.093 2.446738
5681.73 5681.73 3.430000 2.050858 179.31 23.0637 2.598817
5697.48 5697.48 3.460000 2.030579 182.009 23.8904 2.739540
5708.08 5708.08 3.490000 2.017481 184.19 24.4954 2.841034