Folder: webxdiviewer/xdidata/Ti (part 12)

File: Ti-K-SrCe2Ti4O12.xdi
# XDI/1.0 BlueSky/1.5.0
# Beamline.name: 6BM
# Beamline.xray_source: NSLS-II three-pole wiggler
# Beamline.collimation: paraboloid mirror, 5 nm Rh on 30 nm Pt
# Beamline.focusing: not in use
# Beamline.harmonic_rejection: flat mirror, Si stripe, pitch = 7.0 mrad relative to beam
# Detector.i0: 10 cm N2
# Detector.i1: 25 cm N2
# Detector.i2: 25 cm N2
# Element.symbol: Ti
# Element.edge: K
# Facility.name: NSLS-II
# Facility.energy: 3.0
# Facility.current: 220.6
# Facility.mode: top-off
# Facility.gup: 301027
# Facility.saf: 304156
# Mono.name: Si(111)
# Mono.d_spacing: 3.13526
# Mono.encoder_resolution: 0.0000050 deg/ct
# Mono.angle_offset: 16.0571 deg
# Mono.scan_mode: pseudo channel cut
# Mono.scan_type: step
# Mono.direction: forward in energy
# Sample.name: SrCe2Ti4O12
# Sample.prep: Powder in polyethylene glycol pellet
# Sample.x_position: -113.290 mm
# Sample.y_position: 117.505 mm
# Sample.wheel_position: 210.000 mm
# Scan.experimenters: Bruce Ravel, Martin Stennett
# Scan.edge_energy: 4966.0
# Scan.start_time: 2019-05-30T20:15:37
# Scan.end_time: 2019-05-30T20:59:44
# Scan.transient_id: 9855
# Scan.uid: 55fd094d-76d9-4c09-aad5-c0774c73065d
# Scan.plot_hint: (DTC1 + DTC2 + DTC3 + DTC4) / I0  --  ($8+$9+$10+$11) / $5
# Scan.sequence: merge of 3 scans
# Column.1: energy eV
# Column.2: requested_energy eV
# Column.3: measurement_time seconds
# Column.4: mutrans
# Column.5: i0
# Column.6: itrans
# Column.7: irefer
# /////
#  sample disk prepared by Martin
# -----
# energy   requested_energy   measurement_time   mutrans   i0   itrans   irefer
4766 4766 0.500000 79.8508 10.7066 0.031181 0.005012
4796.01 4796 0.500000 69.2679 11.4564 0.036518 0.005185
4826.01 4826 0.500000 61.3277 12.2449 0.043962 0.006110
4856 4856 0.500000 47.7488 13.0066 0.052716 0.007442
4886.01 4886 0.500000 39.4182 13.7912 0.062467 0.008752
4916.01 4916 0.500000 31.906 14.5833 0.073577 0.010360
4938 4938 0.500000 29.7731 15.1448 0.082683 0.011723
4943.99 4944 0.500000 31.179 15.2811 0.085290 0.012019
4950 4950 0.500000 31.26 15.4088 0.087507 0.012247
4956 4956 0.500000 34.0021 15.538 0.090066 0.012681
4956.74 4956.75 0.500000 33.2219 15.5445 0.090531 0.012822
4957.49 4957.5 0.500000 34.4925 15.5539 0.090577 0.012777
4958.24 4958.25 0.500000 35.4817 15.565 0.090996 0.012876
4958.99 4959 0.500000 34.6646 15.5782 0.091149 0.012842
4959.74 4959.75 0.500000 35.6632 15.5889 0.091511 0.012932
4960.5 4960.5 0.500000 36.491 15.6014 0.091845 0.013069
4961.25 4961.25 0.500000 36.8404 15.6169 0.091920 0.012831
4961.99 4962 0.500000 39.2225 15.6281 0.092424 0.013065
4962.75 4962.75 0.500000 40.988 15.6419 0.092766 0.012923
4963.49 4963.5 0.500000 43.4047 15.6543 0.092975 0.012751
4964.25 4964.25 0.500000 47.2634 15.6721 0.093192 0.012106
4965 4965 0.500000 48.147 15.6815 0.093297 0.010432
4965.75 4965.75 0.500000 60.0912 15.6958 0.093424 0.009204
4966.5 4966.5 0.500000 82.925 15.7089 0.093001 0.009831
4967.25 4967.25 0.500000 126.967 15.7139 0.091787 0.010284
4968 4968 0.500000 142.545 15.7326 0.091557 0.010009
4968.75 4968.75 0.500000 191.591 15.7823 0.090822 0.009750
4969.5 4969.5 0.500000 279.259 15.8608 0.089082 0.009287
4970.25 4970.25 0.500000 268.295 15.8705 0.089609 0.009134
4971 4971 0.500000 260.093 15.9035 0.090044 0.008797
4971.75 4971.75 0.500000 276.143 15.9267 0.089750 0.008672
4972.5 4972.5 0.500000 338.355 15.9394 0.088357 0.008234
4973.25 4973.25 0.500000 370.289 15.9525 0.087640 0.007706
4974 4974 0.500000 369.561 15.9611 0.088009 0.007222
4974.75 4974.75 0.500000 346.974 15.9658 0.089102 0.007119
4975.5 4975.5 0.500000 335.999 15.9722 0.089710 0.006854
4976.25 4976.25 0.500000 355.561 15.9703 0.089388 0.006645
4977 4977 0.500000 404.237 15.9683 0.087838 0.006080
4977.75 4977.75 0.500000 477.99 15.975 0.086096 0.006025
4978.5 4978.5 0.500000 597.875 15.9851 0.083210 0.006002
4979.25 4979.25 0.500000 773.205 15.9867 0.078382 0.005408
4980 4980 0.500000 993.887 15.9808 0.072533 0.005106
4980.75 4980.75 0.500000 1274.76 15.9736 0.065835 0.004912
4981.5 4981.5 0.500000 1612.19 15.9726 0.057987 0.004468
4982.25 4982.25 0.500000 1986.09 15.9812 0.050654 0.004070
4983 4983 0.500000 2253.67 15.9895 0.045312 0.003813
4983.75 4983.75 0.500000 2355.65 15.9901 0.043770 0.003765
4984.5 4984.5 0.500000 2323.02 15.9869 0.044615 0.003620
4985.25 4985.25 0.500000 2226.38 15.991 0.046457 0.003816
4986 4986 0.500000 2143.1 15.9943 0.048274 0.003933
4986.75 4986.75 0.500000 2070.37 15.9893 0.049590 0.003991
4987.5 4987.5 0.500000 2042.04 15.9832 0.050475 0.004221
4988.25 4988.25 0.500000 2047.74 15.9911 0.050485 0.004165
4989 4989 0.500000 2072.02 16.0221 0.050089 0.004044
4989.75 4989.75 0.500000 2114.38 16.0585 0.049748 0.004239
4990.5 4990.5 0.500000 2153.18 16.0959 0.049207 0.004012
4991.25 4991.25 0.500000 2186.7 16.1314 0.048678 0.003935
4992 4992 0.500000 2242.72 16.1635 0.048124 0.003987
4992.75 4992.75 0.500000 2269.38 16.1883 0.047785 0.004211
4993.5 4993.5 0.500000 2316.83 16.2054 0.047323 0.004095
4994.26 4994.25 0.500000 2326.38 16.2216 0.047062 0.003891
4995 4995 0.500000 2317.83 16.2364 0.047184 0.003969
4995.75 4995.75 0.500000 2334.64 16.2474 0.047631 0.004007
4998.19 4998.18 0.730000 2288.53 23.8089 0.071257 0.005550
5001.59 5001.58 0.760000 2213.34 25.0021 0.078217 0.005945
5005.17 5005.16 0.800000 2100.93 26.5091 0.087963 0.006662
5008.92 5008.91 0.840000 1949.55 28.0413 0.100190 0.007933
5012.84 5012.83 0.880000 1807.8 29.5634 0.113154 0.008469
5016.93 5016.93 0.910000 1774.21 30.7408 0.121485 0.009354
5021.19 5021.19 0.950000 1756.12 32.2897 0.130288 0.010204
5025.63 5025.63 0.990000 1760.22 33.8517 0.139053 0.010571
5030.24 5030.24 1.030000 1784.93 35.4219 0.146950 0.011159
5035.01 5035.01 1.060000 1819.41 36.6562 0.153360 0.011061
5039.96 5039.97 1.100000 1920.01 38.2552 0.157315 0.011300
5045.09 5045.09 1.140000 1953.48 39.8641 0.165461 0.011843
5050.38 5050.38 1.180000 1970.76 41.4906 0.174588 0.013013
5055.84 5055.84 1.210000 2094.83 42.7805 0.177246 0.014300
5061.47 5061.48 1.250000 2117.11 44.4593 0.186134 0.014831
5067.28 5067.29 1.290000 2046.15 46.1602 0.202944 0.016027
5073.27 5073.27 1.330000 2028.82 47.862 0.216323 0.017109
5079.42 5079.42 1.360000 2049.16 49.2097 0.226844 0.017644
5085.73 5085.74 1.400000 1986.13 50.8945 0.246086 0.017981
5092.23 5092.23 1.440000 1965 52.602 0.262446 0.018824
5098.9 5098.9 1.480000 1974.01 54.3363 0.277948 0.020790
5105.74 5105.74 1.510000 1971.15 55.7068 0.292555 0.023134
5112.74 5112.74 1.550000 1989.75 57.7274 0.309726 0.024267
5119.92 5119.92 1.590000 2031.02 59.6477 0.324866 0.025612
5127.27 5127.27 1.630000 2070.8 61.4871 0.340259 0.026896
5134.79 5134.79 1.660000 2102.85 62.9975 0.355257 0.028277
5142.49 5142.49 1.700000 2110.17 64.8948 0.375852 0.029494
5150.35 5150.35 1.740000 2111.68 66.837 0.398633 0.030842
5158.39 5158.39 1.780000 2114.52 68.7975 0.422538 0.033004
5166.6 5166.6 1.810000 2114.41 70.4168 0.443845 0.035552
5174.98 5174.98 1.850000 2133.74 72.4106 0.469484 0.038483
5183.53 5183.53 1.890000 2134.24 74.4508 0.497918 0.041060
5192.25 5192.25 1.930000 2138.09 76.4824 0.527236 0.043619
5201.14 5201.14 1.960000 2140.26 78.0703 0.554642 0.045879
5210.21 5210.21 2.000000 2145.23 80.1602 0.587240 0.048440
5219.45 5219.45 2.040000 2153.69 82.1933 0.618941 0.051105
5228.85 5228.85 2.080000 2178.74 84.1903 0.650396 0.054052
5238.43 5238.43 2.110000 2206.22 85.853 0.679765 0.057513
5248.18 5248.18 2.150000 2215.11 87.8637 0.718185 0.061942
5258.11 5258.11 2.190000 2236.07 90.6152 0.762685 0.067167
5268.2 5268.2 2.230000 2256.93 93.1789 0.806640 0.071504
5278.47 5278.47 2.260000 2271.08 93.8974 0.838019 0.074627
5288.9 5288.9 2.300000 2276.26 97.744 0.899794 0.080081
5299.51 5299.51 2.340000 2284.5 100.183 0.951462 0.085828
5310.29 5310.29 2.380000 2297.03 102.768 1.007828 0.091922
5321.24 5321.24 2.410000 2311.6 104.715 1.058937 0.097494
5332.36 5332.36 2.450000 2323.64 106.988 1.115035 0.104513
5343.66 5343.66 2.490000 2342.4 109.474 1.176994 0.111541
5355.12 5355.12 2.530000 2367.3 110.873 1.227201 0.118176
5366.76 5366.76 2.560000 2384.36 113.956 1.302220 0.126313
5378.57 5378.57 2.600000 2397.12 115.866 1.366426 0.133745
5390.55 5390.55 2.640000 2421.53 118.049 1.435935 0.142352
5402.7 5402.7 2.680000 2443.6 119.855 1.502032 0.150736
5415.02 5415.02 2.710000 2464.21 120.697 1.559124 0.158729
5427.52 5427.52 2.750000 2492.74 121.493 1.620684 0.167528
5440.18 5440.18 2.790000 2510.02 122.309 1.685934 0.176693
5453.02 5453.02 2.830000 2531.68 123.343 1.759057 0.187114
5466.03 5466.03 2.860000 2551.73 124.161 1.830100 0.196921
5479.21 5479.21 2.900000 2573.39 125.783 1.917533 0.209551
5492.56 5492.56 2.940000 2605.49 127.701 2.010144 0.222487
5506.08 5506.08 2.980000 2634.57 129.85 2.113070 0.236675
5519.78 5519.78 3.010000 2656.25 132.002 2.221474 0.252291
5533.64 5533.64 3.050000 2678.39 134.732 2.343876 0.269606
5547.68 5547.68 3.090000 2697.21 137.845 2.479915 0.289247
5561.89 5561.89 3.130000 2729.7 141.704 2.637361 0.311452
5576.27 5576.27 3.160000 2752.53 144.318 2.778286 0.332540
5590.82 5590.82 3.200000 2777.5 147.246 2.930001 0.355973
5605.54 5605.54 3.240000 2807.02 150.154 3.091324 0.380861
5620.44 5620.44 3.280000 2828.95 152.976 3.258164 0.406919
5635.5 5635.5 3.310000 2860.11 154.195 3.399529 0.430897
5650.74 5650.74 3.350000 2882.95 156.592 3.572338 0.460220
5666.15 5666.15 3.390000 2908.58 159.349 3.757720 0.491038
5681.73 5681.73 3.430000 2939.33 162.598 3.960471 0.524542
5697.48 5697.48 3.460000 2967.55 164.919 4.139923 0.557060
5708.08 5708.08 3.490000 2997.88 167.776 4.262396 0.579357

File: Ti-K-SrTiO3.xdi
# XDI/1.0 BlueSky/1.5.0
# Beamline.name: 6BM
# Beamline.xray_source: NSLS-II three-pole wiggler
# Beamline.collimation: paraboloid mirror, 5 nm Rh on 30 nm Pt
# Beamline.focusing: not in use
# Beamline.harmonic_rejection: flat mirror, Si stripe, pitch = 7.0 mrad relative to beam
# Detector.i0: 10 cm N2
# Detector.i1: 25 cm N2
# Detector.i2: 25 cm N2
# Element.symbol: Ti
# Element.edge: K
# Facility.name: NSLS-II
# Facility.energy: 3.0
# Facility.current: 220.5
# Facility.mode: top-off
# Facility.gup: 301027
# Facility.saf: 304156
# Mono.name: Si(111)
# Mono.d_spacing: 3.13526
# Mono.encoder_resolution: 0.0000050 deg/ct
# Mono.angle_offset: 16.0571 deg
# Mono.scan_mode: pseudo channel cut
# Mono.scan_type: step
# Mono.direction: forward in energy
# Sample.name: SrTiO3 tausonite
# Sample.prep: Powder in polyethylene glycol pellet
# Sample.x_position: -97.532 mm
# Sample.y_position: 117.543 mm
# Sample.wheel_position: -465.000 mm
# Scan.experimenters: Bruce Ravel, Martin Stennett
# Scan.edge_energy: 4966.0
# Scan.start_time: 2019-05-29T21:11:43
# Scan.end_time: 2019-05-29T21:54:34
# Scan.transient_id: 9761
# Scan.uid: 7ea20f27-edf3-4f26-8b51-f2fdb84b8ffa
# Scan.plot_hint: ln(I0/It)  --  ln($5/$6)
# Scan.sequence: merge of 3 scans
# Column.1: energy eV
# Column.2: requested_energy eV
# Column.3: measurement_time seconds
# Column.4: mutrans
# Column.5: i0
# Column.6: itrans
# Column.7: irefer
# /////
#  sample disk prepared by Martin
# -----
# energy   requested_energy   measurement_time   mutrans   i0   itrans   irefer
4765.98 4766 0.500000 3.993458 10.9729 0.202322 0.017366
4796.01 4796 0.500000 3.936748 11.6519 0.227347 0.019578
4826.01 4826 0.500000 3.852694 12.3867 0.262878 0.023567
4856.01 4856 0.500000 3.770220 13.1455 0.302964 0.027981
4886 4886 0.500000 3.689762 13.8516 0.345985 0.032818
4916 4916 0.500000 3.611115 14.5451 0.393034 0.038806
4938 4938 0.500000 3.555557 15.0367 0.429533 0.043650
4944 4944 0.500000 3.540004 15.1603 0.439848 0.044903
4950.01 4950 0.500000 3.525536 15.2738 0.449600 0.045940
4956 4956 0.500000 3.511777 15.3782 0.458941 0.047063
4956.74 4956.75 0.500000 3.510011 15.3885 0.460061 0.047167
4957.5 4957.5 0.500000 3.507813 15.4015 0.461467 0.047420
4958.24 4958.25 0.500000 3.506035 15.4119 0.462598 0.047447
4958.99 4959 0.500000 3.504109 15.426 0.463914 0.047636
4959.75 4959.75 0.500000 3.502433 15.4393 0.465094 0.047804
4960.49 4960.5 0.500000 3.501085 15.454 0.466161 0.047392
4961.25 4961.25 0.500000 3.499651 15.4652 0.467173 0.047790
4962 4962 0.500000 3.497378 15.4824 0.468755 0.047717
4962.75 4962.75 0.500000 3.496221 15.4963 0.469718 0.047367
4963.5 4963.5 0.500000 3.494584 15.5078 0.470838 0.046437
4964.25 4964.25 0.500000 3.493852 15.5253 0.471715 0.042858
4965 4965 0.500000 3.492919 15.5336 0.472409 0.034823
4965.75 4965.75 0.500000 3.491872 15.5486 0.473360 0.033358
4966.5 4966.5 0.500000 3.494157 15.5584 0.472590 0.037021
4967.25 4967.25 0.500000 3.501099 15.6027 0.470649 0.037568
4968 4968 0.500000 3.497923 15.6189 0.472628 0.036441
4968.75 4968.75 0.500000 3.513473 15.6275 0.465581 0.034097
4969.5 4969.5 0.500000 3.526533 15.6329 0.459715 0.032217
4970.25 4970.25 0.500000 3.512675 15.65 0.466616 0.032505
4971 4971 0.500000 3.509213 15.6799 0.469147 0.032306
4971.75 4971.75 0.500000 3.522506 15.6999 0.463519 0.030496
4972.5 4972.5 0.500000 3.537653 15.7131 0.456974 0.028427
4973.25 4973.25 0.500000 3.541567 15.721 0.455404 0.026435
4974 4974 0.500000 3.540648 15.766 0.457125 0.025198
4974.75 4974.75 0.500000 3.541842 15.7714 0.456738 0.023814
4975.5 4975.5 0.500000 3.535376 15.7723 0.459744 0.022656
4976.25 4976.25 0.500000 3.530174 15.7683 0.462006 0.021607
4977 4977 0.500000 3.533356 15.7712 0.460625 0.020663
4977.75 4977.75 0.500000 3.537892 15.7768 0.458714 0.019991
4978.5 4978.5 0.500000 3.550598 15.7855 0.453147 0.019499
4979.26 4979.25 0.500000 3.577514 15.8168 0.441964 0.018831
4980 4980 0.500000 3.627837 15.8089 0.420181 0.017789
4980.75 4980.75 0.500000 3.703296 15.8016 0.389353 0.016406
4981.5 4981.5 0.500000 3.805272 15.8014 0.351666 0.015066
4982.25 4982.25 0.500000 3.918896 15.8099 0.314015 0.013222
4983 4983 0.500000 3.957003 15.8128 0.302347 0.013012
4983.75 4983.75 0.500000 3.941331 15.8084 0.307019 0.013097
4984.5 4984.5 0.500000 3.935724 15.8043 0.308680 0.013347
4985.25 4985.25 0.500000 3.939984 15.8086 0.307459 0.013263
4986 4986 0.500000 3.929459 15.8102 0.310753 0.013680
4986.75 4986.75 0.500000 3.914132 15.8045 0.315423 0.013991
4987.5 4987.5 0.500000 3.915123 15.7985 0.314996 0.014003
4988.25 4988.25 0.500000 3.925311 15.8083 0.311992 0.013935
4989 4989 0.500000 3.929648 15.8409 0.311283 0.014060
4989.75 4989.75 0.500000 3.934783 15.8775 0.310400 0.013720
4990.5 4990.5 0.500000 3.945973 15.9155 0.307672 0.013970
4991.25 4991.25 0.500000 3.956712 15.9483 0.305032 0.013913
4992 4992 0.500000 3.956573 15.9726 0.305534 0.013674
4992.75 4992.75 0.500000 3.956967 15.9932 0.305808 0.013997
4993.5 4993.5 0.500000 3.963122 16.0074 0.304199 0.013992
4994.25 4994.25 0.500000 3.961339 16.0194 0.304969 0.013720
4995 4995 0.500000 3.951228 16.0326 0.308321 0.013905
4995.75 4995.75 0.500000 3.941455 16.0892 0.312456 0.013803
4998.19 4998.18 0.730000 3.928476 23.4828 0.461991 0.019333
5001.59 5001.58 0.760000 3.878812 24.5506 0.507591 0.020795
5005.17 5005.16 0.800000 3.857182 26.0154 0.549637 0.023322
5008.92 5008.91 0.840000 3.817720 27.5031 0.604459 0.027255
5012.84 5012.83 0.880000 3.780051 28.981 0.661385 0.030588
5016.94 5016.93 0.910000 3.746593 30.1143 0.710631 0.033461
5021.2 5021.19 0.950000 3.722883 31.6837 0.765604 0.036622
5025.63 5025.63 0.990000 3.706920 33.2065 0.815320 0.039032
5030.25 5030.24 1.030000 3.695767 34.7402 0.862557 0.040587
5035.02 5035.01 1.060000 3.686239 35.9381 0.900816 0.039789
5039.97 5039.97 1.100000 3.705589 37.5808 0.923954 0.040163
5045.09 5045.09 1.140000 3.699554 39.1551 0.968486 0.043133
5050.38 5050.38 1.180000 3.700431 40.7478 1.006998 0.047924
5055.84 5055.84 1.210000 3.713276 42.0133 1.025021 0.051192
5061.48 5061.48 1.250000 3.692751 43.6636 1.087379 0.054479
5067.28 5067.29 1.290000 3.637976 45.3345 1.192525 0.060793
5073.27 5073.27 1.330000 3.635504 47.04 1.240478 0.063772
5079.42 5079.42 1.360000 3.636051 48.4011 1.275670 0.064196
5085.74 5085.74 1.400000 3.600384 50.155 1.369897 0.065463
5092.23 5092.23 1.440000 3.574832 51.9494 1.455622 0.068223
5098.9 5098.9 1.480000 3.552524 53.7548 1.540185 0.077103
5105.74 5105.74 1.510000 3.521498 55.2073 1.631670 0.086838
5112.74 5112.74 1.550000 3.508587 57.0389 1.707701 0.091664
5119.92 5119.92 1.590000 3.504044 59.0444 1.775790 0.095918
5127.27 5127.27 1.630000 3.505099 60.967 1.831686 0.101033
5134.79 5134.79 1.660000 3.488458 62.5688 1.911336 0.105410
5142.49 5142.49 1.700000 3.459385 64.6044 2.031750 0.110820
5150.35 5150.35 1.740000 3.435455 66.6659 2.147374 0.116081
5158.39 5158.39 1.780000 3.411242 68.9011 2.273748 0.126120
5166.6 5166.6 1.810000 3.397915 70.6237 2.361860 0.134764
5174.98 5174.98 1.850000 3.384997 72.8892 2.469327 0.145466
5183.53 5183.53 1.890000 3.364989 75.0497 2.593902 0.155960
5192.25 5192.25 1.930000 3.336031 77.2386 2.747991 0.166041
5201.14 5201.14 1.960000 3.309623 78.9945 2.885663 0.175146
5210.21 5210.21 2.000000 3.284887 81.2593 3.042743 0.184902
5219.45 5219.45 2.040000 3.266303 83.5595 3.187564 0.196153
5228.85 5228.85 2.080000 3.254158 85.8766 3.315991 0.207259
5238.43 5238.43 2.110000 3.237808 87.8757 3.449112 0.219966
5248.18 5248.18 2.150000 3.215403 89.6861 3.599948 0.234714
5258.11 5258.11 2.190000 3.189127 92.8367 3.825606 0.254705
5268.2 5268.2 2.230000 3.167038 95.7515 4.033849 0.271933
5278.47 5278.47 2.260000 3.145640 97.1673 4.182021 0.284444
5288.9 5288.9 2.300000 3.123424 100.844 4.437782 0.304716
5299.51 5299.51 2.340000 3.101905 103.664 4.661115 0.324952
5310.29 5310.29 2.380000 3.078851 106.658 4.907575 0.347388
5321.24 5321.24 2.410000 3.054580 109.015 5.139216 0.369798
5332.36 5332.36 2.450000 3.029929 111.359 5.380764 0.394167
5343.66 5343.66 2.490000 3.007695 114.015 5.632956 0.421650
5355.12 5355.12 2.530000 2.985548 115.687 5.843610 0.444674
5366.76 5366.76 2.560000 2.962074 118.338 6.119460 0.471324
5378.57 5378.57 2.600000 2.939924 120.232 6.356652 0.495661
5390.55 5390.55 2.640000 2.915776 122.028 6.609257 0.523907
5402.7 5402.7 2.680000 2.893926 123.585 6.841490 0.551925
5415.02 5415.02 2.710000 2.871607 124.666 7.057086 0.579131
5427.52 5427.52 2.750000 2.847209 125.812 7.297827 0.609954
5440.18 5440.18 2.790000 2.822413 127.172 7.561972 0.643647
5453.02 5453.02 2.830000 2.799040 129.211 7.864904 0.680204
5466.03 5466.03 2.860000 2.775853 130.889 8.153909 0.715806
5479.21 5479.21 2.900000 2.752383 133.293 8.500884 0.758623
5492.56 5492.56 2.940000 2.729928 135.8 8.857414 0.803755
5506.08 5506.08 2.980000 2.706014 138.396 9.245192 0.852230
5519.78 5519.78 3.010000 2.681190 140.807 9.642658 0.904236
5533.64 5533.64 3.050000 2.656991 143.77 10.0868 0.962249
5547.68 5547.68 3.090000 2.633463 146.774 10.5427 1.022744
5561.89 5561.89 3.130000 2.610684 150.116 11.0312 1.087978
5576.27 5576.27 3.160000 2.587307 152.758 11.4908 1.151770
5590.82 5590.82 3.200000 2.562790 155.833 12.0131 1.224082
5605.54 5605.54 3.240000 2.537952 159.195 12.5809 1.304290
5620.44 5620.44 3.280000 2.513134 161.997 13.124 1.383811
5635.5 5635.5 3.310000 2.489526 163.359 13.5505 1.453971
5650.74 5650.74 3.350000 2.465726 165.947 14.0967 1.538754
5666.15 5666.15 3.390000 2.441083 169.028 14.7166 1.634489
5681.73 5681.73 3.430000 2.416256 172.616 15.4069 1.740492
5697.48 5697.48 3.460000 2.391432 175.087 16.0203 1.841292
5708.08 5708.08 3.490000 2.374361 177.131 16.4863 1.916910