Folder: webxdiviewer/xdidata/Ti

Note: xdidata/README.md
# bmm-standards
A pretty webpage for BMM's collection of common XAFS materials

[BMM's common materials collection](./BMM-standards.html)

Plotting of the data will happen soon.

Periodic table adapted from [some guy named Daniel](https://codepen.io/gooseofmusic/pen/PjKdNQ)

[This](https://www.coderstool.com/scss-to-css) is a helpful tool for
dealing with Sassy CSS.

File: Ti-K-BaTiO3.xdi
# XDI/1.0 BlueSky/1.5.0
# Beamline.name: 6BM
# Beamline.xray_source: NSLS-II three-pole wiggler
# Beamline.collimation: paraboloid mirror, 5 nm Rh on 30 nm Pt
# Beamline.focusing: not in use
# Beamline.harmonic_rejection: flat mirror, Si stripe, pitch = 7.0 mrad relative to beam
# Detector.i0: 10 cm N2
# Detector.i1: 25 cm N2
# Detector.i2: 25 cm N2
# Element.symbol: Ti
# Element.edge: K
# Facility.name: NSLS-II
# Facility.energy: 3.0
# Facility.current: 219.4
# Facility.mode: top-off
# Facility.gup: 301027
# Facility.saf: 304156
# Mono.name: Si(111)
# Mono.d_spacing: 3.13526
# Mono.encoder_resolution: 0.0000050 deg/ct
# Mono.angle_offset: 16.0571 deg
# Mono.scan_mode: pseudo channel cut
# Mono.scan_type: step
# Mono.direction: forward in energy
# Sample.name: BaTiO3
# Sample.prep: Powder in polyethylene glycol pellet
# Sample.x_position: -97.532 mm
# Sample.y_position: 117.543 mm
# Sample.wheel_position: -480.000 mm
# Scan.experimenters: Bruce Ravel, Martin Stennett
# Scan.edge_energy: 4966.0
# Scan.start_time: 2019-05-29T21:55:01
# Scan.end_time: 2019-05-29T22:37:51
# Scan.transient_id: 9764
# Scan.uid: f7b1530b-b5ec-4fc3-9909-05ad30b2423f
# Scan.plot_hint: ln(I0/It)  --  ln($5/$6)
# Scan.sequence: merge of 3 scans
# Column.1: energy eV
# Column.2: requested_energy eV
# Column.3: measurement_time seconds
# Column.4: mutrans
# Column.5: i0
# Column.6: itrans
# Column.7: irefer
# /////
#  sample disk prepared by Martin
# -----
# energy   requested_energy   measurement_time   mutrans   i0   itrans   irefer
4765.98 4766 0.500000 4.425280 10.9565 0.131161 0.011730
4796.01 4796 0.500000 4.331510 11.6558 0.153246 0.014187
4826.01 4826 0.500000 4.240275 12.3794 0.178283 0.016536
4856.01 4856 0.500000 4.150139 13.1039 0.206548 0.019845
4886.01 4886 0.500000 4.064211 13.8304 0.237562 0.023240
4916 4916 0.500000 3.980094 14.5111 0.271123 0.027087
4938 4938 0.500000 3.920506 14.9968 0.297403 0.030477
4944 4944 0.500000 3.903652 15.1156 0.304851 0.031589
4950 4950 0.500000 3.887800 15.2269 0.312004 0.032610
4956 4956 0.500000 3.872368 15.3277 0.318954 0.033411
4956.74 4956.75 0.500000 3.871137 15.3425 0.319655 0.033538
4957.49 4957.5 0.500000 3.868728 15.3516 0.320618 0.033449
4958.24 4958.25 0.500000 3.867815 15.3659 0.321209 0.033631
4959 4959 0.500000 3.865120 15.3788 0.322346 0.033891
4959.75 4959.75 0.500000 3.863095 15.4267 0.324005 0.033903
4960.5 4960.5 0.500000 3.861592 15.4412 0.324796 0.034118
4961.25 4961.25 0.500000 3.859862 15.4576 0.325703 0.033809
4962 4962 0.500000 3.859109 15.471 0.326234 0.033787
4962.75 4962.75 0.500000 3.857136 15.5242 0.328001 0.033504
4963.5 4963.5 0.500000 3.855498 15.5361 0.328791 0.033008
4964.24 4964.25 0.500000 3.855001 15.5524 0.329301 0.030525
4965 4965 0.500000 3.854539 15.5653 0.329725 0.024682
4965.75 4965.75 0.500000 3.854997 15.5751 0.329782 0.024082
4966.5 4966.5 0.500000 3.860138 15.5871 0.328343 0.026109
4967.25 4967.25 0.500000 3.873726 15.5907 0.323985 0.026368
4968 4968 0.500000 3.884807 15.6086 0.320793 0.025196
4968.75 4968.75 0.500000 3.956965 15.6167 0.298632 0.022747
4969.5 4969.5 0.500000 3.949706 15.6174 0.300806 0.022147
4970.25 4970.25 0.500000 3.904591 15.6371 0.315069 0.022594
4971 4971 0.500000 3.904777 15.6693 0.315659 0.022224
4971.75 4971.75 0.500000 3.936169 15.6855 0.306232 0.020818
4972.5 4972.5 0.500000 3.954111 15.697 0.301001 0.019309
4973.25 4973.25 0.500000 3.955330 15.7075 0.300837 0.018153
4974 4974 0.500000 3.950308 15.7147 0.302483 0.017430
4974.75 4974.75 0.500000 3.952578 15.7203 0.301911 0.016222
4975.5 4975.5 0.500000 3.952130 15.72 0.302042 0.015640
4976.25 4976.25 0.500000 3.952445 15.7166 0.301880 0.015033
4977 4977 0.500000 3.962788 15.7217 0.298857 0.014264
4977.75 4977.75 0.500000 3.982133 15.7303 0.293327 0.013655
4978.5 4978.5 0.500000 4.053051 15.7376 0.273272 0.012520
4979.25 4979.25 0.500000 4.220173 15.7369 0.231353 0.010831
4980 4980 0.500000 4.322111 15.7316 0.208802 0.009922
4980.75 4980.75 0.500000 4.277421 15.7244 0.218216 0.010191
4981.5 4981.5 0.500000 4.268008 15.761 0.220820 0.010164
4982.25 4982.25 0.500000 4.338980 15.7737 0.205828 0.009604
4983 4983 0.500000 4.456191 15.7774 0.183062 0.008755
4983.75 4983.75 0.500000 4.624680 15.7748 0.154758 0.007769
4984.5 4984.5 0.500000 4.884326 15.7695 0.119262 0.006159
4985.25 4985.25 0.500000 5.077798 15.7762 0.098396 0.005575
4986 4986 0.500000 4.946867 15.7745 0.112138 0.006209
4986.75 4986.75 0.500000 4.670996 15.7698 0.147653 0.007553
4987.5 4987.5 0.500000 4.520671 15.7629 0.171482 0.008652
4988.25 4988.25 0.500000 4.472768 15.8151 0.180551 0.009076
4989 4989 0.500000 4.447700 15.8485 0.185500 0.008960
4989.75 4989.75 0.500000 4.426833 15.8839 0.189850 0.009394
4990.5 4990.5 0.500000 4.437795 15.9211 0.188211 0.009295
4991.25 4991.25 0.500000 4.495518 15.9905 0.178421 0.008959
4992 4992 0.500000 4.567025 16.0129 0.166345 0.008442
4992.75 4992.75 0.500000 4.597908 16.0324 0.161497 0.008410
4993.5 4993.5 0.500000 4.593645 16.0487 0.162349 0.008412
4994.25 4994.25 0.500000 4.578361 16.0611 0.164975 0.008473
4995 4995 0.500000 4.569845 16.0715 0.166494 0.008386
4995.75 4995.75 0.500000 4.578563 16.0921 0.165254 0.008082
4998.19 4998.18 0.730000 4.620085 23.4764 0.231288 0.011096
5001.59 5001.58 0.760000 4.551533 24.5324 0.258840 0.012129
5005.17 5005.16 0.800000 4.496112 25.9921 0.289863 0.013702
5008.92 5008.91 0.840000 4.425273 27.4778 0.328932 0.016455
5012.84 5012.83 0.880000 4.353825 28.9465 0.372175 0.018937
5016.94 5016.93 0.910000 4.315051 30.0812 0.402059 0.020434
5021.19 5021.19 0.950000 4.302059 31.5778 0.427583 0.021993
5025.64 5025.63 0.990000 4.317870 33.0935 0.441077 0.022882
5030.23 5030.24 1.030000 4.314479 34.6056 0.462797 0.023743
5035.01 5035.01 1.060000 4.319932 35.8082 0.476283 0.023005
5039.97 5039.97 1.100000 4.320933 37.3683 0.496527 0.023928
5045.09 5045.09 1.140000 4.277926 38.9271 0.539975 0.026268
5050.38 5050.38 1.180000 4.273423 40.5076 0.564433 0.028839
5055.84 5055.84 1.210000 4.299925 41.8637 0.568075 0.030103
5061.48 5061.48 1.250000 4.264295 43.5193 0.611954 0.032768
5067.29 5067.29 1.290000 4.255280 45.1941 0.641265 0.035056
5073.27 5073.27 1.330000 4.238139 46.8977 0.676955 0.037312
5079.42 5079.42 1.360000 4.202063 48.3391 0.723383 0.038337
5085.74 5085.74 1.400000 4.175031 50.1169 0.770538 0.039304
5092.23 5092.23 1.440000 4.144327 51.9434 0.823498 0.041043
5098.9 5098.9 1.480000 4.117442 53.8523 0.877048 0.046576
5105.74 5105.74 1.510000 4.101777 55.3217 0.915200 0.051679
5112.74 5112.74 1.550000 4.094007 57.1671 0.953106 0.053971
5119.92 5119.92 1.590000 4.088783 59.0572 0.989777 0.056311
5127.27 5127.27 1.630000 4.060304 60.9877 1.051673 0.060801
5134.79 5134.79 1.660000 4.015000 62.6001 1.129486 0.065068
5142.49 5142.49 1.700000 4.003775 64.6436 1.179526 0.067045
5150.35 5150.35 1.740000 3.985651 66.6998 1.239307 0.070258
5158.39 5158.39 1.780000 3.977593 68.798 1.288632 0.074785
5166.6 5166.6 1.810000 3.952782 70.5212 1.354085 0.080554
5174.98 5174.98 1.850000 3.920445 72.646 1.440728 0.087871
5183.53 5183.53 1.890000 3.893037 74.8105 1.524882 0.094831
5192.25 5192.25 1.930000 3.865912 77.1111 1.614996 0.100882
5201.14 5201.14 1.960000 3.848062 78.8466 1.681088 0.105680
5210.21 5210.21 2.000000 3.833221 81.0891 1.754752 0.109996
5219.45 5219.45 2.040000 3.820332 83.5872 1.832272 0.116491
5228.85 5228.85 2.080000 3.794919 85.8951 1.931318 0.124174
5238.43 5238.43 2.110000 3.828912 88.0983 1.914675 0.126161
5248.18 5248.18 2.150000 6.088421 89.9296 0.204276 0.021842
5258.11 5258.11 2.190000 4.541764 93.1319 0.992255 0.072819
5268.2 5268.2 2.230000 4.775533 95.8446 0.808308 0.062216
5278.47 5278.47 2.260000 4.755435 97.3159 0.837383 0.064366
5288.9 5288.9 2.300000 4.562511 100.998 1.054000 0.079624
5299.51 5299.51 2.340000 4.538886 103.746 1.108547 0.085217
5310.29 5310.29 2.380000 4.646107 106.624 1.023483 0.080470
5321.24 5321.24 2.410000 4.578688 108.818 1.117403 0.088259
5332.36 5332.36 2.450000 4.461237 111.426 1.286752 0.102410
5343.66 5343.66 2.490000 4.496710 114.153 1.272303 0.103378
5355.12 5355.12 2.530000 4.499903 115.85 1.287093 0.106312
5366.76 5366.76 2.560000 4.494935 118.721 1.325571 0.110618
5378.57 5378.57 2.600000 4.391370 121.046 1.498996 0.125449
5390.55 5390.55 2.640000 4.354361 122.929 1.579711 0.133914
5402.7 5402.7 2.680000 4.381484 124.584 1.558150 0.134963
5415.02 5415.02 2.710000 4.358138 125.491 1.606566 0.140777
5427.52 5427.52 2.750000 4.305230 126.758 1.710955 0.152009
5440.18 5440.18 2.790000 4.255963 128.241 1.818393 0.164655
5453.02 5453.02 2.830000 4.249864 130.033 1.855076 0.170205
5466.03 5466.03 2.860000 4.221345 131.711 1.933353 0.179637
5479.21 5479.21 2.900000 4.186383 134.03 2.037423 0.191472
5492.56 5492.56 2.940000 4.150019 136.82 2.156847 0.205893
5506.08 5506.08 2.980000 4.124504 139.502 2.255971 0.218468
5519.78 5519.78 3.010000 4.094169 142.054 2.367984 0.232551
5533.64 5533.64 3.050000 4.055810 145 2.511620 0.249920
5547.68 5547.68 3.090000 4.015919 148.162 2.670824 0.269307
5561.89 5561.89 3.130000 3.997671 151.221 2.776162 0.284731
5576.27 5576.27 3.160000 3.952908 153.876 2.954233 0.307214
5590.82 5590.82 3.200000 3.923491 157.128 3.106734 0.327964
5605.54 5605.54 3.240000 3.897303 160.19 3.251311 0.348235
5620.44 5620.44 3.280000 3.987837 163.19 3.025366 0.331317
5635.5 5635.5 3.310000 4.203540 164.366 2.456025 0.276194
5650.74 5650.74 3.350000 4.313656 167.606 2.243329 0.258058
5666.15 5666.15 3.390000 4.185137 170.81 2.599752 0.302194
5681.73 5681.73 3.430000 4.193605 174.97 2.640608 0.312607
5697.48 5697.48 3.460000 4.171380 177.782 2.743388 0.328811
5708.08 5708.08 3.490000 4.096646 180.096 2.994718 0.361739

File: Ti-K-BATO16.xdi
# XDI/1.0 BlueSky/1.5.0
# Beamline.name: 6BM
# Beamline.xray_source: NSLS-II three-pole wiggler
# Beamline.collimation: paraboloid mirror, 5 nm Rh on 30 nm Pt
# Beamline.focusing: not in use
# Beamline.harmonic_rejection: flat mirror, Si stripe, pitch = 7.0 mrad relative to beam
# Detector.i0: 10 cm N2
# Detector.i1: 25 cm N2
# Detector.i2: 25 cm N2
# Element.symbol: Ti
# Element.edge: K
# Facility.name: NSLS-II
# Facility.energy: 3.0
# Facility.current: 219.8
# Facility.mode: top-off
# Facility.gup: 301027
# Facility.saf: 304156
# Mono.name: Si(111)
# Mono.d_spacing: 3.13526
# Mono.encoder_resolution: 0.0000050 deg/ct
# Mono.angle_offset: 16.0571 deg
# Mono.scan_mode: pseudo channel cut
# Mono.scan_type: step
# Mono.direction: forward in energy
# Sample.name: Ba1.2 Al2.4 Ti 5.6 O16
# Sample.prep: Powder in polyethylene glycol pellet
# Sample.x_position: -97.532 mm
# Sample.y_position: 117.543 mm
# Sample.wheel_position: -555.000 mm
# Scan.experimenters: Bruce Ravel, Martin Stennett
# Scan.edge_energy: 4966.0
# Scan.start_time: 2019-05-30T01:31:37
# Scan.end_time: 2019-05-30T02:14:24
# Scan.transient_id: 9779
# Scan.uid: fcdc081d-1def-417a-b5df-ca404ab65176
# Scan.plot_hint: ln(I0/It)  --  ln($5/$6)
# Scan.sequence: merge of 3 scans
# Column.1: energy eV
# Column.2: requested_energy eV
# Column.3: measurement_time seconds
# Column.4: mutrans
# Column.5: i0
# Column.6: itrans
# Column.7: irefer
# /////
#  sample disk prepared by Martin
# -----
# energy   requested_energy   measurement_time   mutrans   i0   itrans   irefer
4765.99 4766 0.500000 3.790129 11.0696 0.250123 0.020573
4796.01 4796 0.500000 3.722067 11.7143 0.283297 0.024191
4826.01 4826 0.500000 3.643599 12.3947 0.324214 0.028533
4856.01 4856 0.500000 3.567202 13.0802 0.369315 0.033689
4886.01 4886 0.500000 3.492634 13.7457 0.418156 0.039422
4916 4916 0.500000 3.418659 14.3689 0.470674 0.045711
4938 4938 0.500000 3.366531 14.8095 0.511068 0.051065
4944.01 4944 0.500000 3.352894 14.9199 0.521944 0.052595
4950.01 4950 0.500000 3.338821 15.0184 0.532838 0.054132
4956.01 4956 0.500000 3.325334 15.1111 0.543403 0.055423
4956.74 4956.75 0.500000 3.323750 15.1173 0.544487 0.055694
4957.49 4957.5 0.500000 3.322416 15.1295 0.545653 0.055615
4958.24 4958.25 0.500000 3.320958 15.1757 0.548117 0.055658
4959 4959 0.500000 3.319447 15.1857 0.549310 0.055938
4959.75 4959.75 0.500000 3.318022 15.1943 0.550403 0.056024
4960.5 4960.5 0.500000 3.316720 15.207 0.551583 0.056292
4961.25 4961.25 0.500000 3.316355 15.2191 0.552225 0.055786
4962 4962 0.500000 3.314580 15.2321 0.553678 0.055829
4962.75 4962.75 0.500000 3.313713 15.2435 0.554574 0.055432
4963.49 4963.5 0.500000 3.312542 15.2575 0.555731 0.054732
4964.25 4964.25 0.500000 3.311690 15.2691 0.556626 0.051003
4965 4965 0.500000 3.311644 15.2806 0.557074 0.041090
4965.75 4965.75 0.500000 3.314306 15.3135 0.556792 0.038686
4966.5 4966.5 0.500000 3.323817 15.3336 0.552240 0.042753
4967.25 4967.25 0.500000 3.346693 15.3327 0.539724 0.042666
4968 4968 0.500000 3.335549 15.3503 0.546390 0.041922
4968.75 4968.75 0.500000 3.368112 15.359 0.529156 0.038513
4969.5 4969.5 0.500000 3.424397 15.358 0.500202 0.035191
4970.25 4970.25 0.500000 3.413177 15.4076 0.507438 0.035259
4971 4971 0.500000 3.379644 15.4369 0.525790 0.035749
4971.75 4971.75 0.500000 3.358978 15.4523 0.537284 0.034979
4972.5 4972.5 0.500000 3.375887 15.4634 0.528657 0.032771
4973.25 4973.25 0.500000 3.386665 15.4723 0.523295 0.030539
4974 4974 0.500000 3.381508 15.4776 0.526176 0.028871
4974.75 4974.75 0.500000 3.387968 15.4845 0.523019 0.027398
4975.5 4975.5 0.500000 3.409299 15.4887 0.512128 0.025494
4976.25 4976.25 0.500000 3.441409 15.4802 0.495651 0.023100
4977 4977 0.500000 3.490064 15.48 0.472159 0.021056
4977.75 4977.75 0.500000 3.557909 15.4863 0.441350 0.019560
4978.5 4978.5 0.500000 3.630559 15.4923 0.410619 0.017622
4979.25 4979.25 0.500000 3.680113 15.4928 0.390774 0.016845
4980 4980 0.500000 3.714965 15.4821 0.377105 0.016106
4980.75 4980.75 0.500000 3.746161 15.4805 0.365471 0.015449
4981.5 4981.5 0.500000 3.783003 15.475 0.352096 0.015048
4982.25 4982.25 0.500000 3.834496 15.482 0.334575 0.014309
4983 4983 0.500000 3.893985 15.4855 0.315365 0.013277
4983.75 4983.75 0.500000 3.945626 15.4814 0.299384 0.012913
4984.5 4984.5 0.500000 3.992171 15.4786 0.285770 0.012419
4985.25 4985.25 0.500000 4.031304 15.4817 0.274806 0.012182
4986 4986 0.500000 4.060309 15.4817 0.266963 0.012073
4986.75 4986.75 0.500000 4.080476 15.4766 0.261562 0.011997
4987.5 4987.5 0.500000 4.094295 15.501 0.258357 0.011910
4988.25 4988.25 0.500000 4.104889 15.5142 0.255867 0.011865
4989 4989 0.500000 4.116316 15.5408 0.253383 0.011737
4989.75 4989.75 0.500000 4.123166 15.5812 0.252310 0.011700
4990.5 4990.5 0.500000 4.119400 15.6134 0.253784 0.011898
4991.26 4991.25 0.500000 4.102671 15.6458 0.258626 0.012317
4992 4992 0.500000 4.074227 15.6727 0.266490 0.012548
4992.75 4992.75 0.500000 4.040648 15.6916 0.275971 0.012729
4993.5 4993.5 0.500000 4.011392 15.7044 0.284358 0.013200
4994.25 4994.25 0.500000 3.987887 15.7154 0.291326 0.013181
4995 4995 0.500000 3.974562 15.7273 0.295477 0.013449
4995.75 4995.75 0.500000 3.971987 15.7548 0.296755 0.013232
4998.18 4998.18 0.730000 4.003734 23.0198 0.420037 0.017847
5001.59 5001.58 0.760000 4.042700 24.0529 0.422132 0.017709
5005.17 5005.16 0.800000 3.991768 25.5373 0.471591 0.020172
5008.92 5008.91 0.840000 3.910153 26.9949 0.540900 0.024428
5012.84 5012.83 0.880000 3.834725 28.44 0.614519 0.028599
5016.94 5016.93 0.910000 3.825886 29.56 0.644383 0.030519
5021.19 5021.19 0.950000 3.810700 31.0325 0.686825 0.033406
5025.64 5025.63 0.990000 3.785748 32.5343 0.738264 0.035704
5030.24 5030.24 1.030000 3.774895 34.0421 0.780901 0.036849
5035.02 5035.01 1.060000 3.778697 35.2358 0.805224 0.035819
5039.96 5039.97 1.100000 3.803637 36.7765 0.819744 0.036082
5045.09 5045.09 1.140000 3.813509 38.3447 0.846291 0.038158
5050.38 5050.38 1.180000 3.802986 39.9367 0.890755 0.042645
5055.84 5055.84 1.210000 3.790773 41.2126 0.930501 0.046771
5061.48 5061.48 1.250000 3.778811 42.8599 0.979343 0.049267
5067.28 5067.29 1.290000 3.764386 44.5476 1.032685 0.053153
5073.27 5073.27 1.330000 3.744810 46.2758 1.093971 0.056756
5079.42 5079.42 1.360000 3.724860 47.7662 1.151951 0.057989
5085.74 5085.74 1.400000 3.705117 49.538 1.218511 0.058680
5092.23 5092.23 1.440000 3.677797 51.3483 1.298026 0.061639
5098.9 5098.9 1.480000 3.649059 53.2142 1.384400 0.070090
5105.74 5105.74 1.510000 3.625863 54.8543 1.460566 0.078672
5112.74 5112.74 1.550000 3.612727 56.768 1.531494 0.082798
5119.92 5119.92 1.590000 3.605561 58.6868 1.594653 0.087082
5127.27 5127.27 1.630000 3.600201 60.6456 1.656729 0.091477
5134.79 5134.79 1.660000 3.590496 62.4245 1.721963 0.095508
5142.49 5142.49 1.700000 3.575738 64.508 1.805881 0.099001
5150.35 5150.35 1.740000 3.556741 66.6219 1.900831 0.103380
5158.39 5158.39 1.780000 3.532809 68.7607 2.009387 0.112343
5166.6 5166.6 1.810000 3.509775 70.5602 2.110014 0.121178
5174.98 5174.98 1.850000 3.489554 72.7361 2.219510 0.131573
5183.53 5183.53 1.890000 3.471207 74.969 2.330000 0.140409
5192.25 5192.25 1.930000 3.452759 77.1941 2.443828 0.148484
5201.14 5201.14 1.960000 3.434450 78.9797 2.546571 0.155490
5210.21 5210.21 2.000000 3.415678 81.281 2.670419 0.162935
5219.45 5219.45 2.040000 3.395486 83.632 2.803692 0.173690
5228.85 5228.85 2.080000 3.378686 86.1624 2.937471 0.184750
5238.43 5238.43 2.110000 3.370415 88.215 3.032412 0.194119
5248.18 5248.18 2.150000 3.699843 90.091 2.227852 0.148304
5258.11 5258.11 2.190000 3.469398 93.4806 2.910596 0.195986
5268.2 5268.2 2.230000 3.469296 96.2373 2.996728 0.203886
5278.47 5278.47 2.260000 3.442211 97.7904 3.128671 0.214926
5288.9 5288.9 2.300000 3.418204 101.517 3.326838 0.230758
5299.51 5299.51 2.340000 3.397523 104.269 3.488435 0.245779
5310.29 5310.29 2.380000 3.379839 107.155 3.648950 0.260728
5321.24 5321.24 2.410000 3.356283 109.327 3.811640 0.277242
5332.36 5332.36 2.450000 3.331366 111.645 3.990678 0.295549
5343.66 5343.66 2.490000 3.311947 114.5 4.172949 0.314683
5355.12 5355.12 2.530000 3.292963 116.128 4.313429 0.330912
5366.76 5366.76 2.560000 3.270238 119.014 4.522222 0.350960
5378.57 5378.57 2.600000 3.248957 121.474 4.714988 0.370101
5390.55 5390.55 2.640000 3.226619 123.488 4.901419 0.391696
5402.7 5402.7 2.680000 3.203352 125.449 5.096491 0.413739
5415.02 5415.02 2.710000 3.180444 126.822 5.271629 0.435943
5427.52 5427.52 2.750000 3.158779 128.361 5.452453 0.458764
5440.18 5440.18 2.790000 3.135257 130.533 5.676677 0.486301
5453.02 5453.02 2.830000 3.112046 132.63 5.903333 0.513576
5466.03 5466.03 2.860000 3.089503 134.532 6.124527 0.541201
5479.21 5479.21 2.900000 3.066429 137.134 6.388694 0.573552
5492.56 5492.56 2.940000 3.043002 139.874 6.670795 0.608331
5506.08 5506.08 2.980000 3.019258 142.678 6.968035 0.645518
5519.78 5519.78 3.010000 2.996015 145.226 7.259231 0.683903
5533.64 5533.64 3.050000 2.972653 148.794 7.613385 0.729671
5547.68 5547.68 3.090000 2.949387 152.012 7.961169 0.775517
5561.89 5561.89 3.130000 2.925852 155.648 8.345708 0.827453
5576.27 5576.27 3.160000 2.902223 158.361 8.694146 0.875492
5590.82 5590.82 3.200000 2.878623 161.959 9.104036 0.932311
5605.54 5605.54 3.240000 2.854998 165.155 9.505621 0.989708
5620.44 5620.44 3.280000 2.851675 168.313 9.719634 1.029544
5635.5 5635.5 3.310000 2.881455 169.548 9.503690 1.024794
5650.74 5650.74 3.350000 2.868856 172.382 9.785061 1.074233
5666.15 5666.15 3.390000 2.836739 175.768 10.3029 1.150549
5681.73 5681.73 3.430000 2.814407 179.654 10.7685 1.222238
5697.48 5697.48 3.460000 2.790396 182.678 11.2159 1.294765
5708.08 5708.08 3.490000 2.772959 185.159 11.5681 1.350940