Folder: webxdiviewer/xdidata/Ti (part 5)

File: Ti-K-Ce23TiO3.xdi
# XDI/1.0 BlueSky/1.5.0
# Beamline.name: 6BM
# Beamline.xray_source: NSLS-II three-pole wiggler
# Beamline.collimation: paraboloid mirror, 5 nm Rh on 30 nm Pt
# Beamline.focusing: not in use
# Beamline.harmonic_rejection: flat mirror, Si stripe, pitch = 7.0 mrad relative to beam
# Detector.i0: 10 cm N2
# Detector.i1: 25 cm N2
# Detector.i2: 25 cm N2
# Element.symbol: Ti
# Element.edge: K
# Facility.name: NSLS-II
# Facility.energy: 3.0
# Facility.current: 219.5
# Facility.mode: top-off
# Facility.gup: 301027
# Facility.saf: 304156
# Mono.name: Si(111)
# Mono.d_spacing: 3.13526
# Mono.encoder_resolution: 0.0000050 deg/ct
# Mono.angle_offset: 16.0571 deg
# Mono.scan_mode: pseudo channel cut
# Mono.scan_type: step
# Mono.direction: forward in energy
# Sample.name: Ce2/3TiO3
# Sample.prep: Powder in polyethylene glycol pellet
# Sample.x_position: -113.290 mm
# Sample.y_position: 117.505 mm
# Sample.wheel_position: 240.000 mm
# Scan.experimenters: Bruce Ravel, Martin Stennett
# Scan.edge_energy: 4966.0
# Scan.start_time: 2019-05-30T18:46:41
# Scan.end_time: 2019-05-30T19:30:34
# Scan.transient_id: 9849
# Scan.uid: e2b11d3c-c12a-4aa5-b32c-5765a332a951
# Scan.plot_hint: (DTC1 + DTC2 + DTC3 + DTC4) / I0  --  ($8+$9+$10+$11) / $5
# Scan.sequence: merge of 3 scans
# Column.1: energy eV
# Column.2: requested_energy eV
# Column.3: measurement_time seconds
# Column.4: mutrans
# Column.5: i0
# Column.6: itrans
# Column.7: irefer
# /////
#  sample disk prepared by Martin
# -----
# energy   requested_energy   measurement_time   mutrans   i0   itrans   irefer
4765.99 4766 0.500000 79.5582 10.4733 0.031846 0.004947
4796.01 4796 0.500000 69.1128 11.2125 0.036379 0.005379
4826.01 4826 0.500000 60.2271 12.0114 0.043954 0.006379
4856 4856 0.500000 48.1224 12.7736 0.052052 0.007362
4886 4886 0.500000 37.7404 13.6139 0.062320 0.008892
4916 4916 0.500000 32.5281 14.4559 0.073739 0.010577
4938 4938 0.500000 28.5963 15.0395 0.082315 0.011506
4943.99 4944 0.500000 29.059 15.1872 0.085211 0.012053
4950 4950 0.500000 30.3947 15.3235 0.087708 0.012403
4956 4956 0.500000 31.0998 15.4596 0.089832 0.012575
4956.74 4956.75 0.500000 32.5556 15.4801 0.090646 0.012988
4957.49 4957.5 0.500000 33.8666 15.4906 0.090778 0.012945
4958.25 4958.25 0.500000 32.9506 15.5078 0.091267 0.012816
4958.99 4959 0.500000 32.018 15.5283 0.091397 0.012817
4959.74 4959.75 0.500000 34.6127 15.5413 0.091663 0.012903
4960.5 4960.5 0.500000 33.1088 15.5545 0.091976 0.012914
4961.24 4961.25 0.500000 36.7866 15.5717 0.092301 0.013029
4962 4962 0.500000 36.4742 15.5901 0.092499 0.012985
4962.75 4962.75 0.500000 38.7553 15.6058 0.092862 0.012884
4963.5 4963.5 0.500000 41.0483 15.6239 0.093247 0.012757
4964.25 4964.25 0.500000 43.3959 15.638 0.093507 0.012306
4965 4965 0.500000 48.9233 15.6564 0.093659 0.010481
4965.75 4965.75 0.500000 61.5758 15.6681 0.093529 0.009348
4966.5 4966.5 0.500000 84.5031 15.6796 0.093269 0.010263
4967.25 4967.25 0.500000 118.636 15.689 0.092305 0.010529
4968 4968 0.500000 149.383 15.7083 0.091671 0.010096
4968.75 4968.75 0.500000 187.657 15.7219 0.090567 0.009645
4969.5 4969.5 0.500000 239.64 15.7233 0.089191 0.009242
4970.25 4970.25 0.500000 235.691 15.7335 0.090003 0.009333
4971 4971 0.500000 231.107 15.7641 0.090372 0.009117
4971.75 4971.75 0.500000 240.282 15.7837 0.090338 0.008890
4972.5 4972.5 0.500000 266.228 15.7953 0.089869 0.008225
4973.25 4973.25 0.500000 290.936 15.802 0.089550 0.008140
4974 4974 0.500000 284.06 15.8108 0.089800 0.007651
4974.75 4974.75 0.500000 283.214 15.8128 0.090356 0.007295
4975.5 4975.5 0.500000 295.423 15.817 0.090150 0.006837
4976.25 4976.25 0.500000 325.436 15.8546 0.089546 0.006724
4977 4977 0.500000 383.783 15.8532 0.087994 0.006533
4977.75 4977.75 0.500000 465.741 15.8584 0.085851 0.005981
4978.5 4978.5 0.500000 573.811 15.8679 0.083082 0.005776
4979.25 4979.25 0.500000 726.399 15.8963 0.079101 0.005435
4980 4980 0.500000 903.076 15.8906 0.074474 0.005196
4980.75 4980.75 0.500000 1116.08 15.9225 0.069601 0.005107
4981.5 4981.5 0.500000 1329.19 15.9188 0.064639 0.004691
4982.25 4982.25 0.500000 1538.86 15.929 0.059988 0.004492
4983 4983 0.500000 1691.72 15.9366 0.056770 0.004314
4983.75 4983.75 0.500000 1789 15.9376 0.055246 0.004295
4984.5 4984.5 0.500000 1761.43 15.9366 0.055495 0.004291
4985.25 4985.25 0.500000 1702.44 15.9408 0.056958 0.004358
4986 4986 0.500000 1642.17 15.9472 0.058718 0.004715
4986.75 4986.75 0.500000 1587.01 15.9439 0.059846 0.004605
4987.5 4987.5 0.500000 1562.64 15.9394 0.060414 0.004619
4988.25 4988.25 0.500000 1572.54 15.9479 0.060405 0.004429
4989 4989 0.500000 1583.2 15.9813 0.060660 0.004563
4989.75 4989.75 0.500000 1597.01 16.0232 0.060525 0.004527
4990.5 4990.5 0.500000 1614.65 16.0645 0.060618 0.004848
4991.25 4991.25 0.500000 1650.48 16.1041 0.060220 0.004738
4992 4992 0.500000 1671.71 16.1355 0.059769 0.004513
4992.75 4992.75 0.500000 1694.62 16.1615 0.059684 0.004609
4993.5 4993.5 0.500000 1708.73 16.1785 0.059609 0.004630
4994.25 4994.25 0.500000 1724.7 16.1975 0.059803 0.004852
4995 4995 0.500000 1728.2 16.215 0.059635 0.004767
4995.75 4995.75 0.500000 1753.54 16.2251 0.059665 0.004605
4998.19 4998.18 0.730000 1735.31 23.7165 0.088110 0.006414
5001.59 5001.58 0.760000 1701.46 24.8119 0.094748 0.006770
5005.17 5005.16 0.800000 1580.97 26.3106 0.106094 0.007596
5008.92 5008.91 0.840000 1476.58 27.8342 0.118591 0.008891
5012.84 5012.83 0.880000 1377.57 29.3511 0.131440 0.009814
5016.94 5016.93 0.910000 1349.67 30.5185 0.139936 0.010857
5021.19 5021.19 0.950000 1348.88 32.0663 0.149075 0.011230
5025.64 5025.63 0.990000 1359.27 33.6583 0.158581 0.011715
5030.24 5030.24 1.030000 1391.05 35.3684 0.168167 0.012322
5035.02 5035.01 1.060000 1422.35 36.6062 0.175266 0.012420
5039.98 5039.97 1.100000 1489.27 38.2121 0.182410 0.012749
5045.09 5045.09 1.140000 1490.07 39.8976 0.193396 0.013798
5050.38 5050.38 1.180000 1506.27 41.5361 0.204715 0.015058
5055.83 5055.84 1.210000 1591.05 42.827 0.209749 0.016016
5061.48 5061.48 1.250000 1613.22 44.5077 0.220998 0.016709
5067.28 5067.29 1.290000 1581.03 46.1964 0.236739 0.018049
5073.26 5073.27 1.330000 1566.08 47.9019 0.252437 0.019322
5079.41 5079.42 1.360000 1562.1 49.2316 0.265076 0.019903
5085.74 5085.74 1.400000 1513.43 50.9166 0.285447 0.020532
5092.23 5092.23 1.440000 1512.3 52.6018 0.302092 0.021082
5098.9 5098.9 1.480000 1516.48 54.3052 0.318612 0.023553
5105.74 5105.74 1.510000 1530.22 55.6421 0.333199 0.025580
5112.74 5112.74 1.550000 1552.32 57.3626 0.350390 0.027045
5119.92 5119.92 1.590000 1571.26 59.1093 0.367656 0.028603
5127.27 5127.27 1.630000 1586.84 60.8958 0.387116 0.030203
5134.79 5134.79 1.660000 1601.92 62.3198 0.404585 0.031703
5142.49 5142.49 1.700000 1622.29 64.159 0.425415 0.032417
5150.35 5150.35 1.740000 1633.53 66.0217 0.448920 0.033979
5158.39 5158.39 1.780000 1636.21 68.4404 0.478028 0.036879
5166.6 5166.6 1.810000 1645.73 69.9889 0.501768 0.039407
5174.98 5174.98 1.850000 1642.47 71.9271 0.530927 0.043033
5183.53 5183.53 1.890000 1636.79 73.9202 0.561992 0.045733
5192.25 5192.25 1.930000 1648.88 75.8781 0.592987 0.048562
5201.14 5201.14 1.960000 1663.6 77.4553 0.621362 0.051095
5210.21 5210.21 2.000000 1675.33 79.515 0.655255 0.053456
5219.45 5219.45 2.040000 1680.22 81.48 0.690540 0.057036
5228.85 5228.85 2.080000 1700.39 83.4111 0.725539 0.060285
5238.43 5238.43 2.110000 1719.66 85.035 0.759885 0.064476
5248.18 5248.18 2.150000 1726.26 86.5924 0.797155 0.068363
5258.11 5258.11 2.190000 1746.56 89.1658 0.843120 0.073287
5268.2 5268.2 2.230000 1761.12 91.445 0.888222 0.078319
5278.47 5278.47 2.260000 1772.37 92.153 0.922252 0.081519
5288.9 5288.9 2.300000 1781.96 95.8159 0.988167 0.087793
5299.51 5299.51 2.340000 1791.87 98.7046 1.049273 0.094140
5310.29 5310.29 2.380000 1799.41 101.394 1.112591 0.101015
5321.24 5321.24 2.410000 1809.63 103.243 1.167532 0.107102
5332.36 5332.36 2.450000 1832.4 105.547 1.228532 0.114432
5343.66 5343.66 2.490000 1847.23 107.872 1.293361 0.122547
5355.12 5355.12 2.530000 1862.01 109.203 1.348891 0.128939
5366.76 5366.76 2.560000 1877.26 112.081 1.426560 0.137840
5378.57 5378.57 2.600000 1893.76 113.914 1.495108 0.145416
5390.55 5390.55 2.640000 1907.71 115.637 1.563788 0.154677
5402.7 5402.7 2.680000 1926.22 117.081 1.630550 0.163124
5415.02 5415.02 2.710000 1945.51 117.573 1.686789 0.171502
5427.52 5427.52 2.750000 1965.35 118.249 1.748386 0.180326
5440.18 5440.18 2.790000 1979.74 118.932 1.813822 0.190074
5453.02 5453.02 2.830000 2001.58 120.536 1.896845 0.200961
5466.03 5466.03 2.860000 2017.35 121.156 1.967261 0.211312
5479.21 5479.21 2.900000 2038.73 122.543 2.053309 0.223265
5492.56 5492.56 2.940000 2062.92 124.215 2.144552 0.236103
5506.08 5506.08 2.980000 2080.2 126.272 2.250489 0.251394
5519.78 5519.78 3.010000 2106.32 128.182 2.358065 0.267119
5533.64 5533.64 3.050000 2126.36 130.685 2.481143 0.284555
5547.68 5547.68 3.090000 2146.22 133.483 2.617165 0.304729
5561.89 5561.89 3.130000 2165.25 136.485 2.764370 0.325778
5576.27 5576.27 3.160000 2184.71 138.899 2.905277 0.346840
5590.82 5590.82 3.200000 2216.06 141.891 3.066003 0.371436
5605.54 5605.54 3.240000 2229.15 145.644 3.250698 0.398818
5620.44 5620.44 3.280000 2259.36 148.642 3.428334 0.426635
5635.5 5635.5 3.310000 2280.49 149.992 3.577993 0.452237
5650.74 5650.74 3.350000 2302.97 152.411 3.757601 0.481902
5666.15 5666.15 3.390000 2320.76 155.395 3.958117 0.514986
5681.73 5681.73 3.430000 2344.2 158.598 4.170740 0.550463
5697.48 5697.48 3.460000 2379.83 160.856 4.353954 0.583351
5708.08 5708.08 3.490000 2403.44 162.661 4.453447 0.603336

File: Ti-K-Ce067TiO3.xdi
# XDI/1.0 BlueSky/1.5.0
# Beamline.name: 6BM
# Beamline.xray_source: NSLS-II three-pole wiggler
# Beamline.collimation: paraboloid mirror, 5 nm Rh on 30 nm Pt
# Beamline.focusing: not in use
# Beamline.harmonic_rejection: flat mirror, Si stripe, pitch = 7.0 mrad relative to beam
# Detector.i0: 10 cm N2
# Detector.i1: 25 cm N2
# Detector.i2: 25 cm N2
# Element.symbol: Ti
# Element.edge: K
# Facility.name: NSLS-II
# Facility.energy: 3.0
# Facility.current: 220.0
# Facility.mode: top-off
# Facility.gup: 301027
# Facility.saf: 304156
# Mono.name: Si(111)
# Mono.d_spacing: 3.13526
# Mono.encoder_resolution: 0.0000050 deg/ct
# Mono.angle_offset: 16.0571 deg
# Mono.scan_mode: pseudo channel cut
# Mono.scan_type: step
# Mono.direction: forward in energy
# Sample.name: Ce0.67TiO3
# Sample.prep: Powder in polyethylene glycol pellet
# Sample.x_position: -97.532 mm
# Sample.y_position: 117.543 mm
# Sample.wheel_position: -585.000 mm
# Scan.experimenters: Bruce Ravel, Martin Stennett
# Scan.edge_energy: 4966.0
# Scan.start_time: 2019-05-30T02:58:06
# Scan.end_time: 2019-05-30T03:41:20
# Scan.transient_id: 9785
# Scan.uid: 0c4a041b-07c3-4785-b3c7-19ed2b21f262
# Scan.plot_hint: ln(I0/It)  --  ln($5/$6)
# Scan.sequence: merge of 3 scans
# Column.1: energy eV
# Column.2: requested_energy eV
# Column.3: measurement_time seconds
# Column.4: mutrans
# Column.5: i0
# Column.6: itrans
# Column.7: irefer
# /////
#  sample disk prepared by Martin
# -----
# energy   requested_energy   measurement_time   mutrans   i0   itrans   irefer
4766 4766 0.500000 4.131623 11.0342 0.177176 0.015323
4796.01 4796 0.500000 4.044654 11.7095 0.205100 0.017783
4826.01 4826 0.500000 3.959676 12.374 0.235965 0.021060
4856 4856 0.500000 3.876666 13.057 0.270534 0.024897
4886 4886 0.500000 3.795007 13.7174 0.308405 0.029746
4916 4916 0.500000 3.716249 14.3253 0.348464 0.034462
4938 4938 0.500000 3.659510 14.7548 0.379867 0.038468
4944 4944 0.500000 3.644300 14.8624 0.388498 0.039501
4950.01 4950 0.500000 3.629117 14.9644 0.397151 0.040839
4956 4956 0.500000 3.614962 15.0522 0.405173 0.041918
4956.75 4956.75 0.500000 3.612952 15.0586 0.406161 0.041910
4957.5 4957.5 0.500000 3.610939 15.068 0.407234 0.042032
4958.24 4958.25 0.500000 3.609671 15.0934 0.408440 0.042051
4959 4959 0.500000 3.607798 15.1117 0.409702 0.042382
4959.75 4959.75 0.500000 3.606517 15.1198 0.410446 0.042476
4960.49 4960.5 0.500000 3.603984 15.1318 0.411813 0.042463
4961.25 4961.25 0.500000 3.602809 15.143 0.412602 0.042370
4962 4962 0.500000 3.601162 15.1599 0.413742 0.042423
4962.74 4962.75 0.500000 3.599710 15.176 0.414787 0.041974
4963.5 4963.5 0.500000 3.598026 15.2184 0.416643 0.041694
4964.24 4964.25 0.500000 3.596950 15.2283 0.417366 0.039046
4965 4965 0.500000 3.596696 15.2409 0.417818 0.031605
4965.75 4965.75 0.500000 3.597971 15.251 0.417563 0.029503
4966.5 4966.5 0.500000 3.603578 15.2619 0.415515 0.032390
4967.25 4967.25 0.500000 3.613912 15.2643 0.411311 0.033100
4968 4968 0.500000 3.615141 15.2802 0.411239 0.032023
4968.75 4968.75 0.500000 3.628565 15.2882 0.405980 0.030102
4969.5 4969.5 0.500000 3.642329 15.2958 0.400617 0.028607
4970.25 4970.25 0.500000 3.636735 15.3318 0.403807 0.028438
4971 4971 0.500000 3.633108 15.3606 0.406043 0.028145
4971.75 4971.75 0.500000 3.635602 15.3813 0.405574 0.027002
4972.5 4972.5 0.500000 3.646726 15.3915 0.401361 0.025276
4973.25 4973.25 0.500000 3.650148 15.4022 0.400262 0.023815
4974 4974 0.500000 3.644348 15.4109 0.402811 0.022585
4974.75 4974.75 0.500000 3.636286 15.4159 0.406208 0.021480
4975.5 4975.5 0.500000 3.633001 15.4157 0.407541 0.020435
4976.25 4976.25 0.500000 3.637655 15.4112 0.405540 0.019248
4977 4977 0.500000 3.650269 15.4169 0.400595 0.018302
4977.75 4977.75 0.500000 3.672685 15.4187 0.391778 0.017416
4978.5 4978.5 0.500000 3.705997 15.4286 0.379151 0.016475
4979.25 4979.25 0.500000 3.747238 15.4219 0.363711 0.015635
4980 4980 0.500000 3.795596 15.415 0.346348 0.014870
4980.75 4980.75 0.500000 3.861088 15.4056 0.324232 0.013929
4981.5 4981.5 0.500000 3.941554 15.4036 0.299063 0.013055
4982.25 4982.25 0.500000 4.023936 15.4053 0.275468 0.011911
4983 4983 0.500000 4.087870 15.411 0.258561 0.011325
4983.75 4983.75 0.500000 4.116308 15.4076 0.251217 0.011001
4984.5 4984.5 0.500000 4.105647 15.4004 0.253780 0.010899
4985.25 4985.25 0.500000 4.075766 15.4029 0.261542 0.011850
4986 4986 0.500000 4.046667 15.4042 0.269259 0.011981
4986.75 4986.75 0.500000 4.023194 15.3982 0.275563 0.012317
4987.5 4987.5 0.500000 4.011780 15.4409 0.279497 0.012638
4988.25 4988.25 0.500000 4.010772 15.4492 0.279931 0.012731
4989 4989 0.500000 4.013949 15.4769 0.279535 0.012897
4989.75 4989.75 0.500000 4.022470 15.5099 0.277763 0.012647
4990.5 4990.5 0.500000 4.033287 15.5424 0.275352 0.012545
4991.25 4991.25 0.500000 4.043212 15.5764 0.273230 0.012534
4992 4992 0.500000 4.050391 15.6322 0.272249 0.012639
4992.75 4992.75 0.500000 4.055719 15.6559 0.271203 0.012515
4993.5 4993.5 0.500000 4.059564 15.6678 0.270372 0.012323
4994.25 4994.25 0.500000 4.061371 15.6809 0.270110 0.012261
4995 4995 0.500000 4.062449 15.6923 0.270016 0.012251
4995.75 4995.75 0.500000 4.062162 15.7011 0.270242 0.012122
4998.19 4998.18 0.730000 4.050171 22.9345 0.399507 0.017217
5001.59 5001.58 0.760000 4.024688 23.9686 0.428291 0.018033
5005.16 5005.16 0.800000 3.980163 25.4427 0.475331 0.020551
5008.91 5008.91 0.840000 3.930431 26.9065 0.528309 0.024074
5012.84 5012.83 0.880000 3.881006 28.35 0.584860 0.027308
5016.94 5016.93 0.910000 3.862577 29.4707 0.619290 0.029165
5021.2 5021.19 0.950000 3.850752 30.9464 0.658045 0.031849
5025.63 5025.63 0.990000 3.838203 32.4401 0.698509 0.034052
5030.23 5030.24 1.030000 3.832109 33.9512 0.735505 0.034903
5035.01 5035.01 1.060000 3.829624 35.1418 0.763203 0.034247
5039.97 5039.97 1.100000 3.836916 36.6932 0.791107 0.034482
5045.09 5045.09 1.140000 3.823095 38.2634 0.836443 0.037784
5050.38 5050.38 1.180000 3.812968 39.8537 0.880068 0.041875
5055.84 5055.84 1.210000 3.822879 41.1478 0.899690 0.045021
5061.48 5061.48 1.250000 3.816259 42.8105 0.942258 0.047440
5067.29 5067.29 1.290000 3.790863 44.5018 1.004695 0.051322
5073.27 5073.27 1.330000 3.766827 46.2291 1.069068 0.055645
5079.42 5079.42 1.360000 3.748930 47.7151 1.123344 0.056970
5085.74 5085.74 1.400000 3.716262 49.4919 1.203862 0.057766
5092.23 5092.23 1.440000 3.696120 51.3198 1.273740 0.060175
5098.9 5098.9 1.480000 3.680136 53.3007 1.344230 0.067739
5105.74 5105.74 1.510000 3.664953 54.8324 1.404017 0.075299
5112.74 5112.74 1.550000 3.649814 56.8684 1.478345 0.079741
5119.92 5119.92 1.590000 3.636785 58.8086 1.548840 0.084005
5127.27 5127.27 1.630000 3.619948 60.7844 1.628048 0.089429
5134.79 5134.79 1.660000 3.605012 62.4463 1.697745 0.094061
5142.49 5142.49 1.700000 3.589866 64.5397 1.781425 0.097636
5150.35 5150.35 1.740000 3.572368 66.6508 1.872165 0.101336
5158.39 5158.39 1.780000 3.551735 68.7867 1.972450 0.109713
5166.6 5166.6 1.810000 3.530913 70.5689 2.066138 0.118664
5174.98 5174.98 1.850000 3.509119 72.7212 2.176068 0.128260
5183.53 5183.53 1.890000 3.485294 74.9367 2.296416 0.138556
5192.25 5192.25 1.930000 3.464678 77.1599 2.413795 0.146481
5201.14 5201.14 1.960000 3.445171 78.9449 2.518292 0.153396
5210.21 5210.21 2.000000 3.424725 81.2419 2.645087 0.161336
5219.45 5219.45 2.040000 3.404018 83.7508 2.783818 0.171432
5228.85 5228.85 2.080000 3.383515 86.142 2.922628 0.183293
5238.43 5238.43 2.110000 3.362859 88.6046 3.068915 0.195956
5248.18 5248.18 2.150000 3.340967 90.4919 3.203644 0.209354
5258.11 5258.11 2.190000 3.320572 93.6321 3.383142 0.225608
5268.2 5268.2 2.230000 3.300552 96.3724 3.552554 0.239805
5278.47 5278.47 2.260000 3.277940 97.6251 3.681011 0.250668
5288.9 5288.9 2.300000 3.255205 101.379 3.910483 0.268733
5299.51 5299.51 2.340000 3.231557 104.116 4.112158 0.287505
5310.29 5310.29 2.380000 3.207574 107.009 4.329034 0.306617
5321.24 5321.24 2.410000 3.185076 109.172 4.517034 0.325559
5332.36 5332.36 2.450000 3.162497 111.443 4.716279 0.345804
5343.66 5343.66 2.490000 3.140223 114.25 4.943950 0.369906
5355.12 5355.12 2.530000 3.117205 116.032 5.137979 0.391080
5366.76 5366.76 2.560000 3.094640 118.91 5.385601 0.414629
5378.57 5378.57 2.600000 3.070843 121.077 5.615792 0.438342
5390.55 5390.55 2.640000 3.047998 123.519 5.861447 0.465080
5402.7 5402.7 2.680000 3.025459 125.416 6.087131 0.491143
5415.02 5415.02 2.710000 3.002768 126.718 6.291505 0.516869
5427.52 5427.52 2.750000 2.979523 128.303 6.519959 0.545091
5440.19 5440.18 2.790000 2.955985 130.227 6.775395 0.576296
5453.02 5453.02 2.830000 2.931567 132.373 7.057284 0.610484
5466.03 5466.03 2.860000 2.907390 134.399 7.340633 0.644560
5479.21 5479.21 2.900000 2.883103 137.1 7.672228 0.684692
5492.56 5492.56 2.940000 2.859389 139.797 8.010866 0.726264
5506.08 5506.08 2.980000 2.835372 142.691 8.375489 0.772452
5519.78 5519.78 3.010000 2.811194 145.627 8.756996 0.820775
5533.64 5533.64 3.050000 2.787097 148.88 9.170994 0.874730
5547.68 5547.68 3.090000 2.762691 152.905 9.651645 0.936361
5561.89 5561.89 3.130000 2.737802 156.257 10.1118 0.996702
5576.27 5576.27 3.160000 2.713258 159.137 10.554 1.058125
5590.82 5590.82 3.200000 2.688830 162.586 11.0494 1.126506
5605.54 5605.54 3.240000 2.664223 165.9 11.5555 1.197447
5620.44 5620.44 3.280000 2.639477 169.255 12.0846 1.273928
5635.5 5635.5 3.310000 2.614760 170.77 12.4978 1.341167
5650.74 5650.74 3.350000 2.590074 173.815 13.0386 1.423554
5666.15 5666.15 3.390000 2.565040 177.447 13.6485 1.516487
5681.73 5681.73 3.430000 2.541273 181.871 14.3253 1.618440
5697.48 5697.48 3.460000 2.519904 184.639 14.8574 1.707807
5708.08 5708.08 3.490000 2.513182 187.759 15.2103 1.768708