Folder: webxdiviewer/xdidata/Ti (part 14)

File: Ti-K-TiO.xdi
# XDI/1.0 BlueSky/1.5.0
# Beamline.name: 6BM
# Beamline.xray_source: NSLS-II three-pole wiggler
# Beamline.collimation: paraboloid mirror, 5 nm Rh on 30 nm Pt
# Beamline.focusing: not in use
# Beamline.harmonic_rejection: flat mirror, Si stripe, pitch = 7.0 mrad relative to beam
# Detector.i0: 10 cm N2
# Detector.i1: 25 cm N2
# Detector.i2: 25 cm N2
# Element.symbol: Ti
# Element.edge: K
# Facility.name: NSLS-II
# Facility.energy: 3.0
# Facility.current: 219.3
# Facility.mode: top-off
# Facility.gup: 301027
# Facility.saf: 304156
# Mono.name: Si(111)
# Mono.d_spacing: 3.13526
# Mono.encoder_resolution: 0.0000050 deg/ct
# Mono.angle_offset: 16.0571 deg
# Mono.scan_mode: pseudo channel cut
# Mono.scan_type: step
# Mono.direction: forward in energy
# Sample.name: TiO
# Sample.prep: Powder in polyethylene glycol pellet
# Sample.x_position: -97.532 mm
# Sample.y_position: 117.543 mm
# Sample.wheel_position: -720.000 mm
# Scan.experimenters: Bruce Ravel, Martin Stennett
# Scan.edge_energy: 4966.0
# Scan.start_time: 2019-05-30T09:28:40
# Scan.end_time: 2019-05-30T10:11:04
# Scan.transient_id: 9812
# Scan.uid: 5e9fb322-3abe-42ad-8e8c-6943a9110918
# Scan.plot_hint: ln(I0/It)  --  ln($5/$6)
# Scan.sequence: merge of 3 scans
# Column.1: energy eV
# Column.2: requested_energy eV
# Column.3: measurement_time seconds
# Column.4: mutrans
# Column.5: i0
# Column.6: itrans
# Column.7: irefer
# /////
#  sample disk prepared by Martin
# -----
# energy   requested_energy   measurement_time   mutrans   i0   itrans   irefer
4766 4766 0.500000 3.771044 10.9476 0.252104 0.020359
4796.01 4796 0.500000 3.687958 11.5959 0.290166 0.024371
4826.01 4826 0.500000 3.608606 12.2335 0.331401 0.028662
4856 4856 0.500000 3.530202 12.8943 0.377785 0.033997
4886.01 4886 0.500000 3.453683 13.5361 0.428135 0.039995
4916.01 4916 0.500000 3.379395 14.1243 0.481190 0.046664
4938 4938 0.500000 3.328029 14.5493 0.521796 0.052076
4944 4944 0.500000 3.315482 14.6823 0.533208 0.053434
4950 4950 0.500000 3.303408 14.7858 0.543494 0.054852
4956 4956 0.500000 3.294027 14.8795 0.552089 0.055958
4956.74 4956.75 0.500000 3.293568 14.8847 0.552539 0.056039
4957.5 4957.5 0.500000 3.293374 14.8973 0.553117 0.056040
4958.25 4958.25 0.500000 3.292044 14.9056 0.554156 0.056172
4958.99 4959 0.500000 3.292643 14.9126 0.554087 0.056091
4959.75 4959.75 0.500000 3.292631 14.9257 0.554579 0.056283
4960.5 4960.5 0.500000 3.291953 14.9348 0.555292 0.055985
4961.25 4961.25 0.500000 3.292885 14.9484 0.555282 0.055927
4962 4962 0.500000 3.294342 14.9598 0.554894 0.055665
4962.75 4962.75 0.500000 3.297315 14.9717 0.553686 0.055142
4963.5 4963.5 0.500000 3.301511 15.0149 0.552957 0.054333
4964.25 4964.25 0.500000 3.310791 15.0283 0.548347 0.050787
4965 4965 0.500000 3.340557 15.0406 0.532719 0.040149
4965.75 4965.75 0.500000 3.413618 15.0532 0.495671 0.034043
4966.5 4966.5 0.500000 3.459264 15.0627 0.473750 0.035950
4967.25 4967.25 0.500000 3.493887 15.0679 0.457754 0.036444
4968 4968 0.500000 3.529459 15.0847 0.442228 0.034355
4968.75 4968.75 0.500000 3.584034 15.0934 0.419121 0.030903
4969.5 4969.5 0.500000 3.646570 15.0964 0.393734 0.028010
4970.25 4970.25 0.500000 3.713076 15.1069 0.368621 0.025704
4971 4971 0.500000 3.797663 15.1343 0.339343 0.023798
4971.75 4971.75 0.500000 3.894857 15.1539 0.308302 0.020962
4972.5 4972.5 0.500000 3.983444 15.1664 0.282410 0.018556
4973.25 4973.25 0.500000 4.060639 15.1787 0.261638 0.015911
4974 4974 0.500000 4.120238 15.1975 0.246814 0.014440
4974.75 4974.75 0.500000 4.158630 15.2224 0.237913 0.013366
4975.5 4975.5 0.500000 4.184514 15.2213 0.231806 0.012413
4976.25 4976.25 0.500000 4.220532 15.2251 0.223678 0.011656
4977 4977 0.500000 4.272756 15.2256 0.212317 0.010868
4977.75 4977.75 0.500000 4.332850 15.2344 0.200030 0.009670
4978.5 4978.5 0.500000 4.390938 15.2441 0.188865 0.009062
4979.25 4979.25 0.500000 4.449639 15.2453 0.178098 0.008641
4980 4980 0.500000 4.511387 15.24 0.167397 0.007946
4980.76 4980.75 0.500000 4.577751 15.2323 0.156540 0.007949
4981.5 4981.5 0.500000 4.648163 15.2311 0.145901 0.007254
4982.25 4982.25 0.500000 4.727069 15.2376 0.134881 0.006722
4983 4983 0.500000 4.802123 15.2438 0.125170 0.006257
4983.75 4983.75 0.500000 4.845794 15.2741 0.120077 0.006344
4984.5 4984.5 0.500000 4.849548 15.2717 0.119608 0.006206
4985.25 4985.25 0.500000 4.817946 15.2737 0.123446 0.006280
4986.01 4986 0.500000 4.766483 15.2817 0.130080 0.006702
4986.75 4986.75 0.500000 4.714668 15.2754 0.136909 0.007233
4987.5 4987.5 0.500000 4.668997 15.271 0.143261 0.007439
4988.25 4988.25 0.500000 4.631339 15.2791 0.148827 0.007760
4989 4989 0.500000 4.600204 15.3044 0.153803 0.007672
4989.75 4989.75 0.500000 4.570142 15.3457 0.158937 0.007851
4990.5 4990.5 0.500000 4.541878 15.3802 0.163845 0.008253
4991.25 4991.25 0.500000 4.520238 15.4161 0.167823 0.008371
4992 4992 0.500000 4.510079 15.4429 0.169832 0.008592
4992.75 4992.75 0.500000 4.507739 15.5045 0.170911 0.008502
4993.51 4993.5 0.500000 4.515009 15.5191 0.169820 0.008377
4994.25 4994.25 0.500000 4.527746 15.5324 0.167827 0.008381
4995 4995 0.500000 4.545444 15.5469 0.165031 0.008267
4995.75 4995.75 0.500000 4.564454 15.5547 0.162014 0.007967
4998.19 4998.18 0.730000 4.590280 22.7257 0.230667 0.010926
5001.59 5001.58 0.760000 4.540819 23.7529 0.253323 0.011777
5005.17 5005.16 0.800000 4.463779 25.1774 0.290011 0.013525
5008.91 5008.91 0.840000 4.407476 26.6267 0.324466 0.016144
5012.83 5012.83 0.880000 4.366694 28.0626 0.356200 0.017754
5016.94 5016.93 0.910000 4.347962 29.1764 0.377343 0.019243
5021.2 5021.19 0.950000 4.329117 30.723 0.404904 0.021044
5025.64 5025.63 0.990000 4.343825 32.2294 0.418554 0.022046
5030.24 5030.24 1.030000 4.407919 33.7348 0.410915 0.021296
5035.02 5035.01 1.060000 4.471964 34.929 0.399067 0.019753
5039.98 5039.97 1.100000 4.473898 36.4809 0.415982 0.020125
5045.09 5045.09 1.140000 4.429072 38.0508 0.453772 0.022181
5050.38 5050.38 1.180000 4.368285 39.6572 0.502592 0.025652
5055.84 5055.84 1.210000 4.317898 40.954 0.545830 0.029261
5061.48 5061.48 1.250000 4.319938 42.7023 0.567972 0.030449
5067.28 5067.29 1.290000 4.312953 44.4014 0.594699 0.032337
5073.27 5073.27 1.330000 4.267511 46.1258 0.646527 0.035401
5079.42 5079.42 1.360000 4.239586 47.5289 0.685059 0.036753
5085.74 5085.74 1.400000 4.252683 49.3079 0.701450 0.035977
5092.23 5092.23 1.440000 4.255936 51.1286 0.724994 0.036307
5098.9 5098.9 1.480000 4.218691 53.1074 0.781635 0.041713
5105.74 5105.74 1.510000 4.201651 54.6553 0.818236 0.045904
5112.74 5112.74 1.550000 4.210149 56.5797 0.839878 0.047850
5119.92 5119.92 1.590000 4.194838 58.5461 0.882475 0.050433
5127.27 5127.27 1.630000 4.160103 60.5453 0.944868 0.054808
5134.79 5134.79 1.660000 4.133447 62.2265 0.997336 0.057612
5142.49 5142.49 1.700000 4.119794 64.359 1.045698 0.059601
5150.35 5150.35 1.740000 4.107874 66.5872 1.094874 0.061752
5158.39 5158.39 1.780000 4.079136 68.8555 1.165165 0.067390
5166.6 5166.6 1.810000 4.044802 70.6639 1.237547 0.073170
5174.98 5174.98 1.850000 4.027064 72.8422 1.298524 0.079479
5183.53 5183.53 1.890000 4.017106 75.0944 1.352072 0.084082
5192.25 5192.25 1.930000 3.996604 77.3349 1.421249 0.089215
5201.14 5201.14 1.960000 3.979098 79.2389 1.481965 0.092877
5210.21 5210.21 2.000000 3.957454 81.5693 1.558933 0.097938
5219.45 5219.45 2.040000 3.934076 83.895 1.641305 0.103968
5228.85 5228.85 2.080000 3.913374 86.36 1.724870 0.110807
5238.43 5238.43 2.110000 3.896266 88.5767 1.799673 0.117554
5248.18 5248.18 2.150000 3.873051 90.4762 1.881436 0.125774
5258.11 5258.11 2.190000 3.844200 93.5366 2.002000 0.136162
5268.2 5268.2 2.230000 3.818742 96.2212 2.112571 0.145617
5278.47 5278.47 2.260000 3.796433 97.2976 2.184406 0.151492
5288.9 5288.9 2.300000 3.773058 101.129 2.324112 0.162243
5299.51 5299.51 2.340000 3.749454 103.975 2.446606 0.173759
5310.29 5310.29 2.380000 3.728701 106.767 2.564972 0.185029
5321.24 5321.24 2.410000 3.707507 108.825 2.670424 0.195704
5332.36 5332.36 2.450000 3.684652 111.033 2.787580 0.207834
5343.66 5343.66 2.490000 3.660329 113.745 2.925975 0.222363
5355.12 5355.12 2.530000 3.636331 115.455 3.042096 0.234728
5366.76 5366.76 2.560000 3.612062 118.436 3.197305 0.249364
5378.57 5378.57 2.600000 3.586379 120.936 3.349734 0.264697
5390.55 5390.55 2.640000 3.559426 123.045 3.501265 0.281667
5402.7 5402.7 2.680000 3.535278 124.975 3.643103 0.297461
5415.02 5415.02 2.710000 3.511577 126.525 3.776761 0.313560
5427.52 5427.52 2.750000 3.486873 128.336 3.926608 0.331790
5440.18 5440.18 2.790000 3.461872 130.495 4.093758 0.351605
5453.02 5453.02 2.830000 3.436442 132.843 4.274762 0.372776
5466.03 5466.03 2.860000 3.411081 135.274 4.464770 0.396143
5479.21 5479.21 2.900000 3.386281 138.054 4.670946 0.420039
5492.56 5492.56 2.940000 3.361426 140.844 4.885277 0.446358
5506.08 5506.08 2.980000 3.337531 144.07 5.118050 0.474898
5519.78 5519.78 3.010000 3.312195 146.593 5.341278 0.504154
5533.64 5533.64 3.050000 3.286881 149.949 5.603639 0.537691
5547.68 5547.68 3.090000 3.260741 153.45 5.886363 0.574087
5561.89 5561.89 3.130000 3.235295 156.766 6.168526 0.611647
5576.27 5576.27 3.160000 3.210116 159.53 6.437344 0.648622
5590.82 5590.82 3.200000 3.183978 162.82 6.744097 0.690500
5605.54 5605.54 3.240000 3.158686 166.075 7.055105 0.734393
5620.44 5620.44 3.280000 3.133368 169.634 7.391106 0.782398
5635.5 5635.5 3.310000 3.107210 171.184 7.656326 0.824780
5650.74 5650.74 3.350000 3.081712 174.249 7.994686 0.875817
5666.15 5666.15 3.390000 3.054835 178.285 8.402647 0.936406
5681.73 5681.73 3.430000 3.028796 182.576 8.831892 1.000307
5697.48 5697.48 3.460000 3.002773 185.945 9.232033 1.063868
5708.08 5708.08 3.490000 2.985234 188.461 9.522520 1.109677

File: Ti-K-Titanite.xdi
# XDI/1.0 BlueSky/1.5.0
# Beamline.name: 6BM
# Beamline.xray_source: NSLS-II three-pole wiggler
# Beamline.collimation: paraboloid mirror, 5 nm Rh on 30 nm Pt
# Beamline.focusing: not in use
# Beamline.harmonic_rejection: flat mirror, Si stripe, pitch = 7.0 mrad relative to beam
# Detector.i0: 10 cm N2
# Detector.i1: 25 cm N2
# Detector.i2: 25 cm N2
# Element.symbol: Ti
# Element.edge: K
# Facility.name: NSLS-II
# Facility.current: 0.0 mA
# Facility.energy: 3.0 GeV
# Facility.mode: top-off
# Facility.gup: 303483
# Facility.saf: 303580
# Mono.name: Si(111)
# Mono.d_spacing: 3.13525
# Mono.encoder_resolution: 0.0000050 deg/ct
# Mono.angle_offset: 16.0547 deg
# Mono.scan_mode: pseudo channel cut
# Mono.scan_type: step
# Mono.direction: forward in energy
# Sample.x_position: -114.337 mm
# Sample.y_position: 94.906 mm
# Sample.name: CaTiSiO5 (sphene)
# Sample.prep: natural sample, ground, Powder on tape
# Scan.experimenters: Bruce Ravel
# Scan.edge_energy: 4966.0
# Scan.start_time: 2019-04-06T11:49:11
# Scan.end_time: 2019-04-06T12:09:05
# Scan.transient_id: 8259
# Scan.uid: 96eac8ae-50e3-4275-a0a9-26fd09de50a6
# Scan.plot_hint: ln(I0/It)  --  ln($5/$6)
# Scan.sequence: merge of 2 scans
# Column.1: energy eV
# Column.2: requested_energy eV
# Column.3: measurement_time seconds
# Column.4: mutrans
# Column.5: i0
# Column.6: itrans
# Column.7: irefer
# /////
#
# -----
# energy   requested_energy   measurement_time   mutrans   i0   itrans   irefer
4865.99 4866 1.000000 2.396345 42.6086 3.879517 0.213476
4886.01 4886 1.000000 2.356908 44.2644 4.192375 0.238585
4906 4906 1.000000 2.318626 45.9282 4.519737 0.264126
4926 4926 1.000000 2.280601 47.4434 4.849811 0.295917
4938.01 4938 1.000000 2.258606 47.8744 5.002738 0.313194
4942 4942 1.000000 2.251486 47.9951 5.051136 0.319354
4946 4946 1.000000 2.244168 48.0541 5.094465 0.321179
4950 4950 1.000000 2.236930 48.0389 5.129870 0.325590
4954 4954 1.000000 2.230073 48.0263 5.163789 0.318340
4956.24 4956.25 1.000000 2.225785 48.0368 5.187126 0.327870
4956.74 4956.75 1.000000 2.225052 47.9898 5.185862 0.330941
4957.24 4957.25 1.000000 2.224266 47.9964 5.190656 0.331058
4957.74 4957.75 1.000000 2.223477 47.9755 5.192467 0.328146
4958.24 4958.25 1.000000 2.222136 47.9999 5.202097 0.323504
4958.75 4958.75 1.000000 2.221759 47.8754 5.190600 0.332441
4959.25 4959.25 1.000000 2.220580 47.9674 5.206672 0.333257
4959.75 4959.75 1.000000 2.220271 47.9252 5.203682 0.333015
4960.25 4960.25 1.000000 2.219175 48.0106 5.218680 0.331180
4960.75 4960.75 1.000000 2.218262 47.9071 5.212205 0.326388
4961.25 4961.25 1.000000 2.217260 47.9629 5.223500 0.326109
4961.75 4961.75 1.000000 2.216141 47.9313 5.225889 0.325553
4962.25 4962.25 1.000000 2.215905 47.9338 5.227425 0.324350
4962.75 4962.75 1.000000 2.214591 47.9532 5.236438 0.324491
4963.25 4963.25 1.000000 2.213851 48.0039 5.245802 0.321067
4963.75 4963.75 1.000000 2.213296 48.0378 5.252434 0.309288
4964.25 4964.25 1.000000 2.212639 47.9029 5.241130 0.282235
4964.75 4964.75 1.000000 2.212439 47.8896 5.240718 0.238877
4965.25 4965.25 1.000000 2.211081 47.7979 5.237774 0.216466
4965.75 4965.75 1.000000 2.210489 47.8708 5.248901 0.225939
4966.25 4966.25 1.000000 2.210834 47.8359 5.243262 0.243186
4966.75 4966.75 1.000000 2.210975 47.7802 5.236427 0.252517
4967.25 4967.25 1.000000 2.211362 47.7449 5.230523 0.255744
4967.75 4967.75 1.000000 2.211314 47.8041 5.237279 0.243752
4968.25 4968.25 1.000000 2.211734 47.7979 5.234384 0.237843
4968.75 4968.75 1.000000 2.214390 47.838 5.224855 0.225585
4969.25 4969.25 1.000000 2.218701 47.7185 5.189257 0.217040
4969.75 4969.75 1.000000 2.219459 47.727 5.186395 0.220993
4970.25 4970.25 1.000000 2.214613 47.8652 5.226527 0.212092
4970.75 4970.75 1.000000 2.210973 47.8307 5.241983 0.216177
4971.25 4971.25 1.000000 2.208019 47.9321 5.268623 0.212077
4971.75 4971.75 1.000000 2.205939 48.018 5.289014 0.201620
4972.25 4972.25 1.000000 2.205797 47.9555 5.282916 0.194887
4972.75 4972.75 1.000000 2.205619 47.867 5.274097 0.185774
4973.25 4973.25 1.000000 2.206068 47.7838 5.262568 0.174421
4973.75 4973.75 1.000000 2.206620 47.9161 5.274239 0.166673
4974.25 4974.25 1.000000 2.207321 47.8186 5.259784 0.160734
4974.75 4974.75 1.000000 2.208639 47.6849 5.238181 0.154015
4975.25 4975.25 1.000000 2.210653 47.7328 5.232951 0.152159
4975.75 4975.75 1.000000 2.212525 47.6664 5.215842 0.143516
4976.25 4976.25 1.000000 2.214019 47.5517 5.195486 0.139203
4976.75 4976.75 1.000000 2.215483 47.5413 5.186796 0.132852
4977.25 4977.25 1.000000 2.217961 47.4824 5.167546 0.129790
4977.75 4977.75 1.000000 2.220257 47.4622 5.153471 0.119348
4978.25 4978.25 1.000000 2.224652 47.4566 5.130260 0.120185
4978.75 4978.75 1.000000 2.229401 47.4232 5.102515 0.123310
4979.25 4979.25 1.000000 2.234131 47.362 5.071734 0.116863
4979.75 4979.75 1.000000 2.237914 47.2966 5.045536 0.116149
4980.25 4980.25 1.000000 2.241357 47.3372 5.032629 0.113897
4980.75 4980.75 1.000000 2.247330 47.2222 4.990494 0.112840
4981.25 4981.25 1.000000 2.256162 47.2418 4.948663 0.108535
4981.75 4981.75 1.000000 2.267206 47.1874 4.888520 0.106988
4982.25 4982.25 1.000000 2.278448 47.1383 4.829111 0.106927
4982.75 4982.75 1.000000 2.289171 47.1357 4.777039 0.106017
4983.25 4983.25 1.000000 2.298013 47.129 4.734360 0.103451
4983.75 4983.75 1.000000 2.304380 47.0927 4.700830 0.104774
4984.25 4984.25 1.000000 2.307174 47.0955 4.688021 0.095741
4984.75 4984.75 1.000000 2.309019 47.0099 4.670852 0.110235
4985.25 4985.25 1.000000 2.308959 47.0041 4.670558 0.108358
4985.75 4985.75 1.000000 2.309620 47.0092 4.667990 0.105928
4986.25 4986.25 1.000000 2.310086 47.0181 4.666663 0.111439
4986.75 4986.75 1.000000 2.310665 46.9122 4.653499 0.104854
4987.25 4987.25 1.000000 2.308234 46.8031 4.653922 0.102462
4987.75 4987.75 1.000000 2.303469 46.8476 4.680576 0.107764
4988.25 4988.25 1.000000 2.297617 47.0553 4.728994 0.110702
4988.75 4988.75 1.000000 2.293058 47.0312 4.748203 0.111117
4989.25 4989.25 1.000000 2.289267 47.1498 4.778098 0.112212
4989.75 4989.75 1.000000 2.286468 47.3454 4.811472 0.109587
4990.25 4990.25 1.000000 2.284759 47.3282 4.817960 0.111663
4990.75 4990.75 1.000000 2.283215 47.4696 4.839810 0.115937
4991.25 4991.25 1.000000 2.282509 47.423 4.838456 0.109402
4991.75 4991.75 1.000000 2.281332 47.4903 4.851046 0.116666
4992.25 4992.25 1.000000 2.280514 47.4359 4.849460 0.113208
4992.75 4992.75 1.000000 2.280221 47.4406 4.851347 0.116410
4993.25 4993.25 1.000000 2.280260 47.4627 4.853441 0.116941
4993.75 4993.75 1.000000 2.281544 47.5645 4.857595 0.119355
4994.25 4994.25 1.000000 2.283740 47.512 4.841617 0.114544
4994.75 4994.75 1.000000 2.285951 47.5 4.829720 0.118641
4995.25 4995.25 1.000000 2.287448 47.5271 4.825209 0.117559
4995.75 4995.75 1.000000 2.288408 47.5674 4.824661 0.111381
4998.01 4998 1.000000 2.289565 47.4935 4.811594 0.106491
5002.01 5002 1.000000 2.276264 47.7315 4.900465 0.109720
5006.01 5006 1.000000 2.252948 47.9001 5.033793 0.113212
5010.01 5010 1.000000 2.233354 48.1879 5.164223 0.128607
5014 5014 1.000000 2.220691 48.335 5.245996 0.134049
5018.01 5018 1.000000 2.214974 48.512 5.295409 0.145438
5022.01 5022 1.000000 2.207336 48.7339 5.360419 0.144895
5026.01 5026 1.000000 2.200592 48.9754 5.423422 0.146420
5030.01 5030 1.000000 2.193128 49.2057 5.489743 0.143548
5034.01 5034 1.000000 2.186415 49.4087 5.549523 0.137292
5038.01 5038 1.000000 2.180274 49.5467 5.599292 0.131985
5042.01 5042 1.000000 2.176442 49.8309 5.653044 0.136726
5046 5046 1.000000 2.172856 49.9955 5.692082 0.138943
5050.01 5050 1.000000 2.167955 50.1967 5.743074 0.152294
5054.01 5054 1.000000 2.162179 50.4384 5.804158 0.162441
5058.01 5058 1.000000 2.156003 50.6487 5.864463 0.168041
5062 5062 1.000000 2.148467 50.7761 5.923694 0.167090
5066.01 5066 1.000000 2.140672 51.0124 5.997840 0.180250
5070.01 5070 1.000000 2.131975 51.4267 6.099357 0.181105
5074.01 5074 1.000000 2.123142 51.6216 6.176795 0.180504
5078.01 5078 1.000000 2.115287 51.8305 6.250695 0.186760
5082.01 5082 1.000000 2.107360 52.1376 6.337772 0.178173
5086.01 5086 1.000000 2.099384 52.3675 6.416719 0.184536
5090.01 5090 1.000000 2.091357 52.6051 6.497748 0.174109
5094.01 5094 1.000000 2.084092 52.704 6.557430 0.178763
5098.01 5098 1.000000 2.077632 52.9352 6.628890 0.196278
5102 5102 1.000000 2.071765 53.1251 6.691811 0.215798
5106.01 5106 1.000000 2.065438 53.333 6.760675 0.216750
5110.01 5110 1.000000 2.058479 53.5062 6.829966 0.217317
5114.01 5114 1.000000 2.051798 53.7036 6.901129 0.219596
5118.01 5118 1.000000 2.044685 53.8658 6.971370 0.226458
5122.01 5122 1.000000 2.038314 54.0618 7.041474 0.233966
5126.01 5126 1.000000 2.032214 54.1965 7.102200 0.235233
5130.01 5130 1.000000 2.026454 54.3756 7.166820 0.242914
5134 5134 1.000000 2.019748 54.5688 7.240664 0.247373
5138.01 5138 1.000000 2.012635 54.793 7.322313 0.252722
5142 5142 1.000000 2.006074 54.8941 7.384094 0.246585
5146 5146 1.000000 1.999372 55.0665 7.457115 0.249089
5150.01 5150 1.000000 1.992592 55.1402 7.517900 0.252559
5154 5154 1.000000 1.986463 55.3831 7.597420 0.252179
5158 5158 1.000000 1.979119 55.5217 7.672561 0.263983
5162 5162 1.000000 1.972141 55.722 7.754206 0.268775
5164 5164 1.000000 1.968785 55.7614 7.785765 0.274427