Folder: webxdiviewer/xdidata/Ti (part 11)

File: Ti-K-Ni2TiO4.xdi
# XDI/1.0 BlueSky/1.5.0
# Beamline.name: 6BM
# Beamline.xray_source: NSLS-II three-pole wiggler
# Beamline.collimation: paraboloid mirror, 5 nm Rh on 30 nm Pt
# Beamline.focusing: not in use
# Beamline.harmonic_rejection: flat mirror, Si stripe, pitch = 7.0 mrad relative to beam
# Detector.i0: 10 cm N2
# Detector.i1: 25 cm N2
# Detector.i2: 25 cm N2
# Element.symbol: Ti
# Element.edge: K
# Facility.name: NSLS-II
# Facility.energy: 3.0
# Facility.current: 220.5
# Facility.mode: top-off
# Facility.gup: 301027
# Facility.saf: 304156
# Mono.name: Si(111)
# Mono.d_spacing: 3.13526
# Mono.encoder_resolution: 0.0000050 deg/ct
# Mono.angle_offset: 16.0571 deg
# Mono.scan_mode: pseudo channel cut
# Mono.scan_type: step
# Mono.direction: forward in energy
# Sample.name: Ni2TiO4
# Sample.prep: Powder in polyethylene glycol pellet
# Sample.x_position: -97.532 mm
# Sample.y_position: 117.543 mm
# Sample.wheel_position: -675.000 mm
# Scan.experimenters: Bruce Ravel, Martin Stennett
# Scan.edge_energy: 4966.0
# Scan.start_time: 2019-05-30T07:18:31
# Scan.end_time: 2019-05-30T08:01:24
# Scan.transient_id: 9803
# Scan.uid: ed959132-a19c-4420-bc6c-9cf9bcbae12f
# Scan.plot_hint: ln(I0/It)  --  ln($5/$6)
# Scan.sequence: merge of 3 scans
# Column.1: energy eV
# Column.2: requested_energy eV
# Column.3: measurement_time seconds
# Column.4: mutrans
# Column.5: i0
# Column.6: itrans
# Column.7: irefer
# /////
#  sample disk prepared by Martin
# -----
# energy   requested_energy   measurement_time   mutrans   i0   itrans   irefer
4766 4766 0.500000 3.925763 10.9726 0.216501 0.018205
4796.01 4796 0.500000 3.858393 11.6032 0.244851 0.021014
4826.01 4826 0.500000 3.777993 12.262 0.280415 0.024780
4856 4856 0.500000 3.699020 12.9158 0.319632 0.029194
4886.01 4886 0.500000 3.622317 13.5617 0.362379 0.034146
4916 4916 0.500000 3.547484 14.1499 0.407473 0.040065
4938 4938 0.500000 3.494908 14.5709 0.442251 0.044236
4944.01 4944 0.500000 3.481438 14.6762 0.451488 0.045260
4950 4950 0.500000 3.467639 14.7768 0.460898 0.046871
4956 4956 0.500000 3.454014 14.8682 0.470109 0.047850
4956.75 4956.75 0.500000 3.452820 14.8757 0.470910 0.047858
4957.49 4957.5 0.500000 3.450806 14.8843 0.472130 0.047977
4958.24 4958.25 0.500000 3.449537 14.8935 0.473021 0.048392
4959 4959 0.500000 3.448039 14.9002 0.473945 0.048105
4959.75 4959.75 0.500000 3.446978 14.9155 0.474936 0.048106
4960.49 4960.5 0.500000 3.445364 14.9271 0.476067 0.048400
4961.25 4961.25 0.500000 3.444269 14.9373 0.476918 0.048287
4962 4962 0.500000 3.443119 14.9475 0.477794 0.048286
4962.75 4962.75 0.500000 3.442401 14.9631 0.478637 0.047883
4963.5 4963.5 0.500000 3.442081 14.9754 0.479182 0.046982
4964.25 4964.25 0.500000 3.442307 14.9941 0.479675 0.044555
4964.99 4965 0.500000 3.443373 15.0012 0.479390 0.036389
4965.75 4965.75 0.500000 3.449463 15.0126 0.476846 0.033140
4966.5 4966.5 0.500000 3.468090 15.0275 0.468527 0.035836
4967.25 4967.25 0.500000 3.532113 15.067 0.440390 0.035113
4968 4968 0.500000 3.735536 15.0838 0.359897 0.028097
4968.75 4968.75 0.500000 3.673934 15.0941 0.382844 0.028221
4969.5 4969.5 0.500000 3.519665 15.0987 0.447126 0.031501
4970.25 4970.25 0.500000 3.484377 15.1148 0.463580 0.032491
4971 4971 0.500000 3.477072 15.1455 0.467971 0.031888
4971.75 4971.75 0.500000 3.471960 15.165 0.470959 0.031287
4972.5 4972.5 0.500000 3.468818 15.1789 0.472882 0.029253
4973.25 4973.25 0.500000 3.474087 15.2223 0.471735 0.027638
4974 4974 0.500000 3.492873 15.2352 0.463370 0.025555
4974.75 4974.75 0.500000 3.523221 15.245 0.449744 0.023457
4975.5 4975.5 0.500000 3.556745 15.2494 0.435103 0.021564
4976.25 4976.25 0.500000 3.579676 15.2459 0.425118 0.020158
4977 4977 0.500000 3.586246 15.2841 0.423402 0.019247
4977.75 4977.75 0.500000 3.583085 15.2943 0.425026 0.018531
4978.5 4978.5 0.500000 3.590982 15.3003 0.421830 0.018076
4979.25 4979.25 0.500000 3.603919 15.3037 0.416524 0.017790
4980 4980 0.500000 3.621619 15.2977 0.409045 0.016958
4980.75 4980.75 0.500000 3.646674 15.2936 0.398832 0.016670
4981.5 4981.5 0.500000 3.658731 15.2919 0.394003 0.016251
4982.25 4982.25 0.500000 3.653474 15.3018 0.396338 0.016201
4983 4983 0.500000 3.653211 15.3114 0.396694 0.016117
4983.75 4983.75 0.500000 3.682297 15.3092 0.385215 0.016046
4984.5 4984.5 0.500000 3.736320 15.3112 0.365021 0.015091
4985.25 4985.25 0.500000 3.786527 15.3157 0.347317 0.014673
4986 4986 0.500000 3.839983 15.3168 0.329183 0.014026
4986.75 4986.75 0.500000 3.884332 15.3163 0.314980 0.013586
4987.51 4987.5 0.500000 3.901556 15.311 0.309443 0.013713
4988.25 4988.25 0.500000 3.893459 15.3198 0.312137 0.013672
4989 4989 0.500000 3.863133 15.3529 0.322456 0.013888
4989.75 4989.75 0.500000 3.834240 15.3914 0.332724 0.014723
4990.5 4990.5 0.500000 3.815224 15.4268 0.339872 0.014692
4991.25 4991.25 0.500000 3.800539 15.4617 0.345717 0.015126
4992 4992 0.500000 3.790582 15.4892 0.349777 0.015248
4992.75 4992.75 0.500000 3.787422 15.5115 0.351394 0.015599
4993.5 4993.5 0.500000 3.789026 15.5293 0.351233 0.015383
4994.25 4994.25 0.500000 3.785950 15.5423 0.352591 0.015564
4995 4995 0.500000 3.778187 15.5564 0.355686 0.015500
4995.75 4995.75 0.500000 3.767480 15.5818 0.360102 0.015554
4998.19 4998.18 0.730000 3.775024 22.7797 0.522511 0.021487
5001.59 5001.58 0.760000 3.803800 23.8113 0.530657 0.021471
5005.16 5005.16 0.800000 3.779484 25.2431 0.576409 0.023800
5008.91 5008.91 0.840000 3.787037 26.6971 0.605024 0.026774
5012.84 5012.83 0.880000 3.759684 28.1354 0.655300 0.029868
5016.94 5016.93 0.910000 3.690833 29.3236 0.731657 0.033832
5021.2 5021.19 0.950000 3.664371 30.803 0.789195 0.037398
5025.64 5025.63 0.990000 3.640048 32.3072 0.848104 0.040011
5030.24 5030.24 1.030000 3.612752 33.8231 0.912457 0.041873
5035.02 5035.01 1.060000 3.610474 35.1077 0.949273 0.041443
5039.98 5039.97 1.100000 3.613692 36.667 0.988255 0.041960
5045.09 5045.09 1.140000 3.619720 38.2481 1.024679 0.044962
5050.38 5050.38 1.180000 3.627931 39.8553 1.059001 0.048777
5055.83 5055.84 1.210000 3.608989 41.1563 1.114470 0.054301
5061.48 5061.48 1.250000 3.582575 42.8186 1.190539 0.058563
5067.29 5067.29 1.290000 3.560961 44.5206 1.264898 0.063619
5073.27 5073.27 1.330000 3.567259 46.2464 1.305678 0.066420
5079.42 5079.42 1.360000 3.574913 47.6498 1.335044 0.066034
5085.74 5085.74 1.400000 3.557887 49.4326 1.408781 0.066682
5092.23 5092.23 1.440000 3.533724 51.257 1.496502 0.069347
5098.9 5098.9 1.480000 3.499485 53.1167 1.604848 0.079541
5105.74 5105.74 1.510000 3.462311 54.6519 1.713735 0.090116
5112.74 5112.74 1.550000 3.441693 56.5789 1.811121 0.095857
5119.92 5119.92 1.590000 3.435142 58.7028 1.891451 0.100833
5127.27 5127.27 1.630000 3.431205 60.6846 1.963015 0.106570
5134.79 5134.79 1.660000 3.420378 62.3489 2.038815 0.111247
5142.49 5142.49 1.700000 3.401651 64.458 2.147633 0.115732
5150.35 5150.35 1.740000 3.374134 66.7319 2.285413 0.122123
5158.39 5158.39 1.780000 3.355205 68.8896 2.404395 0.131956
5166.6 5166.6 1.810000 3.338832 70.8388 2.513248 0.141530
5174.98 5174.98 1.850000 3.323982 73.01 2.629030 0.152948
5183.53 5183.53 1.890000 3.314792 75.2566 2.734949 0.162363
5192.25 5192.25 1.930000 3.299450 77.4797 2.859264 0.170869
5201.14 5201.14 1.960000 3.276844 79.2685 2.992164 0.180350
5210.21 5210.21 2.000000 3.242525 81.5845 3.187112 0.191800
5219.45 5219.45 2.040000 3.218002 83.8848 3.358325 0.204808
5228.85 5228.85 2.080000 3.203523 86.2828 3.504702 0.216396
5238.43 5238.43 2.110000 3.187218 88.3255 3.646642 0.230604
5248.18 5248.18 2.150000 3.167294 90.2093 3.799388 0.245936
5258.11 5258.11 2.190000 3.150837 93.4945 4.003079 0.264337
5268.2 5268.2 2.230000 3.129622 96.1879 4.206715 0.281748
5278.47 5278.47 2.260000 3.103876 97.3358 4.367939 0.294663
5288.9 5288.9 2.300000 3.081470 101.357 4.651453 0.316600
5299.51 5299.51 2.340000 3.064554 104.004 4.854329 0.336122
5310.29 5310.29 2.380000 3.048902 106.761 5.061605 0.355947
5321.24 5321.24 2.410000 3.029093 109.052 5.273727 0.377416
5332.36 5332.36 2.450000 3.003974 111.285 5.518588 0.402161
5343.66 5343.66 2.490000 2.980246 114.034 5.790687 0.430742
5355.12 5355.12 2.530000 2.955335 115.473 6.011655 0.454940
5366.76 5366.76 2.560000 2.933881 118.413 6.298422 0.482044
5378.57 5378.57 2.600000 2.912013 120.618 6.557523 0.508611
5390.55 5390.55 2.640000 2.892140 122.69 6.804028 0.536717
5402.7 5402.7 2.680000 2.871000 124.885 7.073776 0.567214
5415.02 5415.02 2.710000 2.846531 126.407 7.337318 0.598945
5427.52 5427.52 2.750000 2.822308 128.19 7.623276 0.633847
5440.18 5440.18 2.790000 2.800347 130.588 7.938318 0.672049
5453.02 5453.02 2.830000 2.778441 132.907 8.258217 0.710717
5466.03 5466.03 2.860000 2.757189 135.036 8.570723 0.749320
5479.21 5479.21 2.900000 2.734946 138.144 8.965208 0.796174
5492.56 5492.56 2.940000 2.711714 141.021 9.366999 0.845922
5506.08 5506.08 2.980000 2.687158 143.996 9.802448 0.899964
5519.78 5519.78 3.010000 2.662877 146.609 10.2256 0.954498
5533.64 5533.64 3.050000 2.639643 149.877 10.6992 1.016480
5547.68 5547.68 3.090000 2.616448 153.101 11.1859 1.080397
5561.89 5561.89 3.130000 2.593618 156.678 11.7115 1.150715
5576.27 5576.27 3.160000 2.570412 159.444 12.1981 1.218805
5590.82 5590.82 3.200000 2.546372 163.008 12.7742 1.297236
5605.54 5605.54 3.240000 2.522728 166.344 13.3475 1.378314
5620.44 5620.44 3.280000 2.499183 169.616 13.9343 1.464002
5635.5 5635.5 3.310000 2.476196 171.488 14.4158 1.541503
5650.74 5650.74 3.350000 2.452758 174.52 15.0185 1.634204
5666.15 5666.15 3.390000 2.429196 178.168 15.698 1.738551
5681.73 5681.73 3.430000 2.406072 182.381 16.4451 1.852293
5697.48 5697.48 3.460000 2.382517 185.377 17.1137 1.961908
5708.08 5708.08 3.490000 2.366559 187.783 17.6146 2.042437

File: Ti-K-Rutile.xdi
# XDI/1.0 BlueSky/1.5.0
# Beamline.name: 6BM
# Beamline.xray_source: NSLS-II three-pole wiggler
# Beamline.collimation: paraboloid mirror, 5 nm Rh on 30 nm Pt
# Beamline.focusing: not in use
# Beamline.harmonic_rejection: flat mirror, Si stripe, pitch = 7.0 mrad relative to beam
# Detector.i0: 10 cm N2
# Detector.i1: 25 cm N2
# Detector.i2: 25 cm N2
# Element.symbol: Ti
# Element.edge: K
# Facility.name: NSLS-II
# Facility.energy: 3.0
# Facility.current: 220.0
# Facility.mode: top-off
# Facility.gup: 301027
# Facility.saf: 304156
# Mono.name: Si(111)
# Mono.d_spacing: 3.13526
# Mono.encoder_resolution: 0.0000050 deg/ct
# Mono.angle_offset: 16.0571 deg
# Mono.scan_mode: pseudo channel cut
# Mono.scan_type: step
# Mono.direction: forward in energy
# Sample.name: TiO2 rutile
# Sample.prep: Powder in polyethylene glycol pellet
# Sample.x_position: -97.532 mm
# Sample.y_position: 117.543 mm
# Sample.wheel_position: -435.000 mm
# Scan.experimenters: Bruce Ravel, Martin Stennett
# Scan.edge_energy: 4966.0
# Scan.start_time: 2019-05-29T19:44:03
# Scan.end_time: 2019-05-29T20:27:44
# Scan.transient_id: 9755
# Scan.uid: a441e553-4511-4c6f-a87d-f75b7327d180
# Scan.plot_hint: ln(I0/It)  --  ln($5/$6)
# Scan.sequence: merge of 3 scans
# Column.1: energy eV
# Column.2: requested_energy eV
# Column.3: measurement_time seconds
# Column.4: mutrans
# Column.5: i0
# Column.6: itrans
# Column.7: irefer
# /////
#  sample disk prepared by Martin
# -----
# energy   requested_energy   measurement_time   mutrans   i0   itrans   irefer
4765.98 4766 0.500000 3.821011 10.8308 0.237257 0.019936
4796.01 4796 0.500000 3.735676 11.5555 0.275682 0.023588
4826.01 4826 0.500000 3.653840 12.3071 0.318651 0.028177
4856.02 4856 0.500000 3.573838 13.0596 0.366298 0.033490
4886.01 4886 0.500000 3.495573 13.783 0.418059 0.039633
4916 4916 0.500000 3.420315 14.5056 0.474364 0.046549
4938 4938 0.500000 3.367342 15.011 0.517598 0.051950
4944.01 4944 0.500000 3.352566 15.1367 0.529703 0.053451
4950.01 4950 0.500000 3.338909 15.2504 0.541020 0.054985
4956.01 4956 0.500000 3.327290 15.3959 0.552561 0.056241
4956.74 4956.75 0.500000 3.325870 15.4059 0.553707 0.056397
4957.49 4957.5 0.500000 3.324342 15.4151 0.554882 0.056861
4958.24 4958.25 0.500000 3.323411 15.4263 0.555803 0.056835
4958.99 4959 0.500000 3.322033 15.4689 0.558106 0.057018
4959.74 4959.75 0.500000 3.320431 15.4817 0.559466 0.057171
4960.5 4960.5 0.500000 3.319644 15.5298 0.561646 0.057189
4961.24 4961.25 0.500000 3.318656 15.5448 0.562740 0.057025
4962 4962 0.500000 3.318094 15.5595 0.563591 0.056959
4962.75 4962.75 0.500000 3.317034 15.5751 0.564757 0.056880
4963.5 4963.5 0.500000 3.317054 15.5897 0.565274 0.055764
4964.25 4964.25 0.500000 3.317246 15.6044 0.565696 0.052239
4965 4965 0.500000 3.318277 15.6161 0.565541 0.042382
4965.75 4965.75 0.500000 3.321740 15.6302 0.564093 0.039405
4966.5 4966.5 0.500000 3.335272 15.6426 0.556951 0.042778
4967.25 4967.25 0.500000 3.370284 15.6515 0.538111 0.042681
4968 4968 0.500000 3.361388 15.6689 0.543461 0.041905
4968.75 4968.75 0.500000 3.415035 15.6838 0.515651 0.037896
4969.5 4969.5 0.500000 3.512015 15.6878 0.468047 0.033286
4970.25 4970.25 0.500000 3.545592 15.7045 0.453099 0.031775
4971 4971 0.500000 3.486500 15.7377 0.481542 0.033197
4971.75 4971.75 0.500000 3.452641 15.7599 0.498937 0.033152
4972.5 4972.5 0.500000 3.504626 15.7749 0.474173 0.029700
4973.25 4973.25 0.500000 3.516591 15.7869 0.468866 0.027842
4974 4974 0.500000 3.481619 15.7977 0.485903 0.026875
4974.75 4974.75 0.500000 3.455741 15.8045 0.498842 0.026206
4975.5 4975.5 0.500000 3.469329 15.8043 0.492104 0.024726
4976.25 4976.25 0.500000 3.531843 15.8068 0.462346 0.021903
4977 4977 0.500000 3.641972 15.8127 0.414453 0.018882
4977.75 4977.75 0.500000 3.800945 15.82 0.353427 0.016191
4978.5 4978.5 0.500000 4.000130 15.8316 0.290038 0.013225
4979.25 4979.25 0.500000 4.134673 15.8341 0.253473 0.011833
4980 4980 0.500000 4.156381 15.8266 0.247913 0.011514
4980.75 4980.75 0.500000 4.225951 15.8196 0.231158 0.010825
4981.5 4981.5 0.500000 4.353139 15.8182 0.203489 0.009364
4982.25 4982.25 0.500000 4.486712 15.8272 0.178189 0.008625
4983 4983 0.500000 4.638505 15.8338 0.153037 0.007454
4983.75 4983.75 0.500000 4.881101 15.8302 0.120178 0.006260
4984.5 4984.5 0.500000 5.164014 15.8382 0.090553 0.005529
4985.25 4985.25 0.500000 5.327062 15.8673 0.077089 0.005040
4986 4986 0.500000 5.305793 15.8708 0.078754 0.005022
4986.75 4986.75 0.500000 5.240644 15.8655 0.084042 0.005468
4987.5 4987.5 0.500000 5.237391 15.8663 0.084318 0.005133
4988.25 4988.25 0.500000 5.284148 15.9014 0.080640 0.005211
4989 4989 0.500000 5.361224 15.9765 0.075005 0.005289
4989.75 4989.75 0.500000 5.440784 16.0134 0.069452 0.004736
4990.5 4990.5 0.500000 5.486710 16.053 0.066483 0.004597
4991.25 4991.25 0.500000 5.456875 16.0849 0.068627 0.004927
4992 4992 0.500000 5.385074 16.1132 0.073852 0.004836
4992.75 4992.75 0.500000 5.303708 16.1328 0.080253 0.005117
4993.5 4993.5 0.500000 5.214780 16.1491 0.087757 0.005491
4994.25 4994.25 0.500000 5.123206 16.1636 0.096293 0.005871
4995 4995 0.500000 5.035476 16.1761 0.105195 0.006185
4995.75 4995.75 0.500000 4.985851 16.1868 0.110612 0.006218
4998.19 4998.18 0.730000 5.061958 23.6485 0.149762 0.008685
5001.59 5001.58 0.760000 5.266894 24.7251 0.127565 0.007859
5005.17 5005.16 0.800000 5.194661 26.2011 0.145334 0.008573
5008.92 5008.91 0.840000 4.885182 27.706 0.209420 0.011828
5012.84 5012.83 0.880000 4.642400 29.2 0.281332 0.015279
5016.94 5016.93 0.910000 4.682666 30.349 0.280855 0.015725
5021.19 5021.19 0.950000 4.649014 31.8642 0.304966 0.017182
5025.63 5025.63 0.990000 4.530990 33.3958 0.359663 0.019736
5030.25 5030.24 1.030000 4.543392 34.9384 0.371650 0.020216
5035.02 5035.01 1.060000 4.589103 36.1366 0.367221 0.019020
5039.97 5039.97 1.100000 4.708313 37.6979 0.340025 0.017796
5045.09 5045.09 1.140000 4.799711 39.262 0.323211 0.017748
5050.38 5050.38 1.180000 4.747628 40.8532 0.354290 0.020049
5055.84 5055.84 1.210000 4.712218 42.119 0.378438 0.022089
5061.48 5061.48 1.250000 4.692032 43.7711 0.401295 0.023494
5067.29 5067.29 1.290000 4.693840 45.5254 0.416634 0.024949
5073.27 5073.27 1.330000 4.625289 47.2837 0.463431 0.027566
5079.42 5079.42 1.360000 4.608814 48.7905 0.486126 0.028043
5085.74 5085.74 1.400000 4.610977 50.5368 0.502445 0.028081
5092.23 5092.23 1.440000 4.534254 52.3047 0.561482 0.030352
5098.9 5098.9 1.480000 4.445426 54.0747 0.634376 0.035638
5105.74 5105.74 1.510000 4.410692 55.4903 0.674026 0.039844
5112.74 5112.74 1.550000 4.395900 57.2951 0.706321 0.042043
5119.92 5119.92 1.590000 4.418713 59.1492 0.712733 0.043103
5127.27 5127.27 1.630000 4.442998 61.0648 0.718162 0.044034
5134.79 5134.79 1.660000 4.419159 62.6541 0.754618 0.046314
5142.49 5142.49 1.700000 4.401649 64.6512 0.792437 0.047767
5150.35 5150.35 1.740000 4.383869 66.6683 0.831819 0.049569
5158.39 5158.39 1.780000 4.333679 68.722 0.901566 0.054785
5166.6 5166.6 1.810000 4.291040 70.4061 0.963908 0.059722
5174.98 5174.98 1.850000 4.273188 72.4733 1.010087 0.064432
5183.53 5183.53 1.890000 4.247663 74.5913 1.066479 0.068968
5192.25 5192.25 1.930000 4.209647 76.7185 1.139399 0.074097
5201.14 5201.14 1.960000 4.178196 78.4926 1.202992 0.078282
5210.21 5210.21 2.000000 4.151168 80.8787 1.273523 0.082690
5219.45 5219.45 2.040000 4.121813 83.2691 1.350218 0.088442
5228.85 5228.85 2.080000 4.109201 85.4914 1.403847 0.093160
5238.43 5238.43 2.110000 4.090100 87.3818 1.462566 0.099335
5248.18 5248.18 2.150000 4.062162 89.1476 1.534392 0.106114
5258.11 5258.11 2.190000 4.034628 92.177 1.630814 0.114681
5268.2 5268.2 2.230000 4.003482 94.8063 1.730405 0.123044
5278.47 5278.47 2.260000 3.975172 96.0265 1.803006 0.128967
5288.9 5288.9 2.300000 3.950578 99.8073 1.920645 0.138290
5299.51 5299.51 2.340000 3.927961 102.426 2.016130 0.147694
5310.29 5310.29 2.380000 3.899573 105.257 2.131518 0.157293
5321.24 5321.24 2.410000 3.865036 107.366 2.250628 0.168874
5332.36 5332.36 2.450000 3.828527 109.985 2.391265 0.182368
5343.66 5343.66 2.490000 3.797228 112.609 2.526133 0.196135
5355.12 5355.12 2.530000 3.772431 114.901 2.642269 0.208006
5366.76 5366.76 2.560000 3.752721 117.588 2.757883 0.219363
5378.57 5378.57 2.600000 3.727471 119.445 2.873076 0.231175
5390.55 5390.55 2.640000 3.699160 121.261 3.000526 0.245153
5402.7 5402.7 2.680000 3.667952 122.823 3.135504 0.260345
5415.02 5415.02 2.710000 3.635620 123.463 3.255424 0.274904
5427.52 5427.52 2.750000 3.603819 124.501 3.388873 0.290937
5440.18 5440.18 2.790000 3.575119 125.599 3.518290 0.307409
5453.02 5453.02 2.830000 3.549330 126.989 3.650156 0.323913
5466.03 5466.03 2.860000 3.522277 128.177 3.785314 0.340826
5479.21 5479.21 2.900000 3.490907 130.403 3.973790 0.362767
5492.56 5492.56 2.940000 3.460015 132.961 4.178874 0.387562
5506.08 5506.08 2.980000 3.429561 135.373 4.386253 0.413079
5519.78 5519.78 3.010000 3.400949 137.967 4.600053 0.440653
5533.64 5533.64 3.050000 3.374233 140.9 4.825028 0.469446
5547.68 5547.68 3.090000 3.346976 143.928 5.064923 0.500665
5561.89 5561.89 3.130000 3.318901 147.018 5.320950 0.533759
5576.27 5576.27 3.160000 3.289555 149.624 5.576565 0.568426
5590.82 5590.82 3.200000 3.259660 152.822 5.868580 0.608006
5605.54 5605.54 3.240000 3.230764 155.833 6.159691 0.648074
5620.44 5620.44 3.280000 3.202061 158.831 6.460960 0.690676
5635.5 5635.5 3.310000 3.172721 160.019 6.703104 0.729398
5650.74 5650.74 3.350000 3.142177 163.402 7.057116 0.780680
5666.15 5666.15 3.390000 3.112841 166.517 7.405769 0.832602
5681.73 5681.73 3.430000 3.083843 170.519 7.806874 0.892268
5697.48 5697.48 3.460000 3.054837 172.964 8.151846 0.947364
5708.08 5708.08 3.490000 3.035329 174.899 8.405433 0.987291