Folder: webxdiviewer/xdidata/Ti (part 2)

File: Ti-K-BFTO16.xdi
# XDI/1.0 BlueSky/1.5.0
# Beamline.name: 6BM
# Beamline.xray_source: NSLS-II three-pole wiggler
# Beamline.collimation: paraboloid mirror, 5 nm Rh on 30 nm Pt
# Beamline.focusing: not in use
# Beamline.harmonic_rejection: flat mirror, Si stripe, pitch = 7.0 mrad relative to beam
# Detector.i0: 10 cm N2
# Detector.i1: 25 cm N2
# Detector.i2: 25 cm N2
# Element.symbol: Ti
# Element.edge: K
# Facility.name: NSLS-II
# Facility.energy: 3.0
# Facility.current: 221.0
# Facility.mode: top-off
# Facility.gup: 301027
# Facility.saf: 304156
# Mono.name: Si(111)
# Mono.d_spacing: 3.13526
# Mono.encoder_resolution: 0.0000050 deg/ct
# Mono.angle_offset: 16.0571 deg
# Mono.scan_mode: pseudo channel cut
# Mono.scan_type: step
# Mono.direction: forward in energy
# Sample.name: Ba1.2 Fe2.4 Ti 5.6 O16
# Sample.prep: Powder in polyethylene glycol pellet
# Sample.x_position: -97.532 mm
# Sample.y_position: 117.543 mm
# Sample.wheel_position: -570.000 mm
# Scan.experimenters: Bruce Ravel, Martin Stennett
# Scan.edge_energy: 4966.0
# Scan.start_time: 2019-05-30T02:14:49
# Scan.end_time: 2019-05-30T02:57:38
# Scan.transient_id: 9782
# Scan.uid: 429a122b-c2cd-40ff-a640-542bce673ec1
# Scan.plot_hint: ln(I0/It)  --  ln($5/$6)
# Scan.sequence: merge of 3 scans
# Column.1: energy eV
# Column.2: requested_energy eV
# Column.3: measurement_time seconds
# Column.4: mutrans
# Column.5: i0
# Column.6: itrans
# Column.7: irefer
# /////
#  sample disk prepared by Martin
# -----
# energy   requested_energy   measurement_time   mutrans   i0   itrans   irefer
4766 4766 0.500000 3.766666 11.0098 0.254652 0.020499
4796.01 4796 0.500000 3.685896 11.675 0.292747 0.024954
4826.01 4826 0.500000 3.607934 12.3458 0.334656 0.029414
4856 4856 0.500000 3.530936 13.0363 0.381664 0.034660
4886 4886 0.500000 3.456048 13.7276 0.433165 0.040433
4916 4916 0.500000 3.382308 14.346 0.487320 0.047692
4938 4938 0.500000 3.329600 14.786 0.529450 0.052964
4944.01 4944 0.500000 3.316221 14.894 0.540502 0.054463
4950.01 4950 0.500000 3.302592 14.9904 0.551464 0.055829
4956 4956 0.500000 3.289220 15.0814 0.562280 0.057045
4956.74 4956.75 0.500000 3.287581 15.0913 0.563570 0.057230
4957.49 4957.5 0.500000 3.285701 15.098 0.564883 0.057269
4958.24 4958.25 0.500000 3.284600 15.1064 0.565819 0.057424
4959 4959 0.500000 3.283105 15.1196 0.567159 0.057636
4959.75 4959.75 0.500000 3.281379 15.162 0.569732 0.058109
4960.5 4960.5 0.500000 3.280370 15.1751 0.570802 0.058102
4961.25 4961.25 0.500000 3.278413 15.188 0.572408 0.058265
4962 4962 0.500000 3.277446 15.2008 0.573441 0.058085
4962.74 4962.75 0.500000 3.276641 15.2125 0.574346 0.057425
4963.5 4963.5 0.500000 3.275069 15.2252 0.575730 0.056550
4964.25 4964.25 0.500000 3.274471 15.2408 0.576666 0.052653
4965 4965 0.500000 3.274334 15.2544 0.577258 0.042671
4965.75 4965.75 0.500000 3.274948 15.2644 0.577286 0.040124
4966.5 4966.5 0.500000 3.282713 15.2775 0.573323 0.044129
4967.25 4967.25 0.500000 3.300045 15.2821 0.563628 0.044580
4968 4968 0.500000 3.293323 15.2994 0.568068 0.043501
4968.75 4968.75 0.500000 3.320980 15.308 0.552894 0.040061
4969.5 4969.5 0.500000 3.362654 15.31 0.530428 0.037441
4970.25 4970.25 0.500000 3.356197 15.3219 0.534215 0.036856
4971 4971 0.500000 3.328819 15.351 0.550121 0.037413
4971.75 4971.75 0.500000 3.314276 15.3712 0.558901 0.036526
4972.5 4972.5 0.500000 3.325561 15.4135 0.554131 0.034049
4973.25 4973.25 0.500000 3.329556 15.4227 0.552268 0.031691
4974 4974 0.500000 3.327692 15.4288 0.553525 0.029990
4974.75 4974.75 0.500000 3.336928 15.4331 0.548580 0.028211
4975.5 4975.5 0.500000 3.353716 15.4339 0.539486 0.026571
4976.25 4976.25 0.500000 3.377998 15.4319 0.526478 0.024589
4977 4977 0.500000 3.416858 15.4317 0.506399 0.022655
4977.75 4977.75 0.500000 3.471790 15.4365 0.479517 0.020887
4978.5 4978.5 0.500000 3.532472 15.4422 0.451377 0.019407
4979.25 4979.25 0.500000 3.577176 15.4431 0.431735 0.018149
4980 4980 0.500000 3.615123 15.4707 0.416318 0.017787
4980.75 4980.75 0.500000 3.651667 15.4583 0.401131 0.016966
4981.5 4981.5 0.500000 3.697173 15.4569 0.383228 0.016140
4982.25 4982.25 0.500000 3.757981 15.4637 0.360735 0.015052
4983 4983 0.500000 3.815487 15.4678 0.340726 0.014353
4983.75 4983.75 0.500000 3.862333 15.4631 0.325043 0.013621
4984.5 4984.5 0.500000 3.902377 15.4614 0.312271 0.013413
4985.25 4985.25 0.500000 3.942951 15.4617 0.299806 0.013036
4986 4986 0.500000 3.980390 15.4612 0.288754 0.012812
4986.75 4986.75 0.500000 4.012466 15.456 0.279605 0.012552
4987.5 4987.5 0.500000 4.033867 15.4499 0.273548 0.012423
4988.25 4988.25 0.500000 4.044777 15.4669 0.270887 0.012490
4989 4989 0.500000 4.050598 15.5241 0.270303 0.012181
4989.75 4989.75 0.500000 4.050269 15.5579 0.270984 0.012222
4990.5 4990.5 0.500000 4.033800 15.5991 0.276199 0.012810
4991.25 4991.25 0.500000 4.003076 15.6257 0.285331 0.013146
4992 4992 0.500000 3.963391 15.6548 0.297384 0.013740
4992.75 4992.75 0.500000 3.927844 15.6725 0.308548 0.014100
4993.5 4993.5 0.500000 3.899877 15.687 0.317593 0.014375
4994.25 4994.25 0.500000 3.882212 15.7005 0.323494 0.014408
4995 4995 0.500000 3.876130 15.7103 0.325688 0.014475
4995.75 4995.75 0.500000 3.880405 15.7185 0.324473 0.013968
4998.18 4998.18 0.730000 3.919672 22.9604 0.455725 0.019157
5001.58 5001.58 0.760000 3.970845 23.9991 0.452577 0.018821
5005.16 5005.16 0.800000 3.902758 25.4251 0.513196 0.021558
5008.91 5008.91 0.840000 3.812209 26.881 0.594029 0.026338
5012.83 5012.83 0.880000 3.737651 28.3272 0.674454 0.030727
5016.94 5016.93 0.910000 3.728567 29.5097 0.709041 0.033257
5021.2 5021.19 0.950000 3.703729 30.9872 0.763276 0.036342
5025.64 5025.63 0.990000 3.674699 32.4828 0.823668 0.039222
5030.24 5030.24 1.030000 3.673139 33.9897 0.863236 0.040453
5035.01 5035.01 1.060000 3.696156 35.1865 0.873276 0.038837
5039.97 5039.97 1.100000 3.723576 36.7382 0.887136 0.038524
5045.09 5045.09 1.140000 3.721439 38.3188 0.927282 0.041281
5050.38 5050.38 1.180000 3.700764 39.9825 0.987762 0.046777
5055.84 5055.84 1.210000 3.683769 41.2582 1.036740 0.051303
5061.48 5061.48 1.250000 3.676669 42.9165 1.086092 0.053951
5067.29 5067.29 1.290000 3.664207 44.6142 1.143208 0.058368
5073.27 5073.27 1.330000 3.646078 46.3315 1.208938 0.062029
5079.42 5079.42 1.360000 3.626827 47.8368 1.272477 0.063823
5085.74 5085.74 1.400000 3.608585 49.6161 1.344099 0.064324
5092.23 5092.23 1.440000 3.577293 51.4412 1.437834 0.067484
5098.9 5098.9 1.480000 3.542191 53.3182 1.543576 0.077271
5105.74 5105.74 1.510000 3.516577 54.8472 1.629013 0.086260
5112.74 5112.74 1.550000 3.505731 56.749 1.703878 0.091337
5119.92 5119.92 1.590000 3.500706 58.683 1.770826 0.095226
5127.27 5127.27 1.630000 3.496485 60.6625 1.838297 0.100848
5134.79 5134.79 1.660000 3.486529 62.3404 1.908062 0.105328
5142.49 5142.49 1.700000 3.473260 64.4555 1.999144 0.108850
5150.35 5150.35 1.740000 3.450199 66.7369 2.118169 0.113994
5158.39 5158.39 1.780000 3.420958 68.913 2.252175 0.124530
5166.6 5166.6 1.810000 3.395492 70.7121 2.370562 0.134945
5174.98 5174.98 1.850000 3.376199 72.8907 2.491204 0.146285
5183.53 5183.53 1.890000 3.358881 75.2756 2.617652 0.156642
5192.25 5192.25 1.930000 3.340148 77.5228 2.746768 0.165858
5201.14 5201.14 1.960000 3.322069 79.3213 2.861759 0.173640
5210.21 5210.21 2.000000 3.301462 81.6234 3.006139 0.181999
5219.45 5219.45 2.040000 3.278902 84.1403 3.169524 0.194586
5228.85 5228.85 2.080000 3.261240 86.5507 3.318425 0.207229
5238.43 5238.43 2.110000 3.252042 88.6225 3.429250 0.217624
5248.18 5248.18 2.150000 3.645835 90.5092 2.362549 0.156828
5258.11 5258.11 2.190000 3.375184 93.6784 3.204908 0.214887
5268.2 5268.2 2.230000 3.375949 96.4086 3.295794 0.223651
5278.47 5278.47 2.260000 3.350408 97.7152 3.426861 0.234151
5288.9 5288.9 2.300000 3.322052 101.45 3.660183 0.252743
5299.51 5299.51 2.340000 3.301383 104.42 3.846002 0.269379
5310.29 5310.29 2.380000 3.281049 107.289 4.032865 0.287151
5321.24 5321.24 2.410000 3.258057 109.448 4.209722 0.304571
5332.36 5332.36 2.450000 3.231803 111.766 4.413219 0.325069
5343.66 5343.66 2.490000 3.213594 114.834 4.617664 0.346718
5355.12 5355.12 2.530000 3.195138 116.451 4.769956 0.364373
5366.76 5366.76 2.560000 3.170871 119.609 5.019660 0.388161
5378.57 5378.57 2.600000 3.149915 121.777 5.218869 0.408531
5390.55 5390.55 2.640000 3.125380 123.753 5.435271 0.432716
5402.7 5402.7 2.680000 3.100454 125.564 5.654003 0.457475
5415.02 5415.02 2.710000 3.077424 126.779 5.841706 0.481252
5427.52 5427.52 2.750000 3.056281 128.278 6.037044 0.506677
5440.18 5440.18 2.790000 3.032339 130.436 6.287359 0.536549
5453.02 5453.02 2.830000 3.009636 132.537 6.535326 0.566326
5466.03 5466.03 2.860000 2.986442 134.49 6.787234 0.598026
5479.21 5479.21 2.900000 2.962819 137.141 7.086475 0.633981
5492.56 5492.56 2.940000 2.938548 139.906 7.406959 0.673271
5506.08 5506.08 2.980000 2.913971 143.1 7.764593 0.717204
5519.78 5519.78 3.010000 2.890006 145.906 8.108838 0.761941
5533.64 5533.64 3.050000 2.866875 149.227 8.487478 0.811586
5547.68 5547.68 3.090000 2.843286 152.465 8.878601 0.862980
5561.89 5561.89 3.130000 2.819446 155.784 9.290784 0.918014
5576.27 5576.27 3.160000 2.794817 158.521 9.689747 0.973649
5590.82 5590.82 3.200000 2.769963 161.831 10.141 1.035685
5605.54 5605.54 3.240000 2.745824 165.424 10.6195 1.103041
5620.44 5620.44 3.280000 2.744926 168.623 10.834 1.144276
5635.5 5635.5 3.310000 2.783359 170.011 10.5118 1.131172
5650.74 5650.74 3.350000 2.771292 173.401 10.8517 1.188922
5666.15 5666.15 3.390000 2.738132 177.333 11.4719 1.278209
5681.73 5681.73 3.430000 2.715752 181.435 12.0029 1.359847
5697.48 5697.48 3.460000 2.691779 184.21 12.4822 1.438562
5708.08 5708.08 3.490000 2.673178 186.488 12.8738 1.500695

File: Ti-K-Brookite.xdi
# XDI/1.0 BlueSky/1.5.0
# Beamline.name: 6BM
# Beamline.xray_source: NSLS-II three-pole wiggler
# Beamline.collimation: paraboloid mirror, 5 nm Rh on 30 nm Pt
# Beamline.focusing: not in use
# Beamline.harmonic_rejection: flat mirror, Si stripe, pitch = 7.0 mrad relative to beam
# Detector.i0: 10 cm N2
# Detector.i1: 25 cm N2
# Detector.i2: 25 cm N2
# Element.symbol: Ti
# Element.edge: K
# Facility.name: NSLS-II
# Facility.energy: 3.0
# Facility.current: 220.5
# Facility.mode: top-off
# Facility.gup: 301027
# Facility.saf: 304156
# Mono.name: Si(111)
# Mono.d_spacing: 3.13526
# Mono.encoder_resolution: 0.0000050 deg/ct
# Mono.angle_offset: 16.0571 deg
# Mono.scan_mode: pseudo channel cut
# Mono.scan_type: step
# Mono.direction: forward in energy
# Sample.name: TiO2 brookite
# Sample.prep: Powder in polyethylene glycol pellet
# Sample.x_position: -97.532 mm
# Sample.y_position: 117.543 mm
# Sample.wheel_position: -735.000 mm
# Scan.experimenters: Bruce Ravel, Martin Stennett
# Scan.edge_energy: 4966.0
# Scan.start_time: 2019-05-30T10:11:30
# Scan.end_time: 2019-05-30T10:54:23
# Scan.transient_id: 9815
# Scan.uid: a3135005-adc6-44da-9579-25aac24b68b7
# Scan.plot_hint: ln(I0/It)  --  ln($5/$6)
# Scan.sequence: merge of 3 scans
# Column.1: energy eV
# Column.2: requested_energy eV
# Column.3: measurement_time seconds
# Column.4: mutrans
# Column.5: i0
# Column.6: itrans
# Column.7: irefer
# /////
#  sample disk prepared by Martin
# -----
# energy   requested_energy   measurement_time   mutrans   i0   itrans   irefer
4765.99 4766 0.500000 2.998803 10.9535 0.546000 0.042225
4796.01 4796 0.500000 2.932878 11.593 0.617257 0.049592
4826.01 4826 0.500000 2.867323 12.2685 0.697471 0.058477
4856 4856 0.500000 2.802668 12.9079 0.782829 0.068416
4886.01 4886 0.500000 2.738631 13.5532 0.876333 0.079492
4916.01 4916 0.500000 2.674750 14.1408 0.974643 0.092545
4938 4938 0.500000 2.630482 14.5612 1.049051 0.102463
4943.99 4944 0.500000 2.618317 14.6632 1.069308 0.105242
4950.01 4950 0.500000 2.607360 14.7629 1.088454 0.107787
4956.01 4956 0.500000 2.597946 14.8562 1.105698 0.109928
4956.74 4956.75 0.500000 2.596955 14.8639 1.107364 0.110174
4957.5 4957.5 0.500000 2.596093 14.8712 1.108866 0.110228
4958.24 4958.25 0.500000 2.594805 14.8782 1.110813 0.110658
4958.99 4959 0.500000 2.594128 14.8898 1.112433 0.110593
4959.75 4959.75 0.500000 2.593325 14.9021 1.114249 0.110504
4960.5 4960.5 0.500000 2.592584 14.9183 1.116290 0.110804
4961.25 4961.25 0.500000 2.591749 14.9233 1.117589 0.110550
4962 4962 0.500000 2.591409 14.9386 1.119112 0.110465
4962.75 4962.75 0.500000 2.591185 14.9516 1.120338 0.109751
4963.5 4963.5 0.500000 2.590974 14.9632 1.121449 0.107693
4964.25 4964.25 0.500000 2.591223 15.0052 1.124315 0.102102
4965 4965 0.500000 2.592292 15.017 1.123995 0.083214
4965.75 4965.75 0.500000 2.596469 15.0312 1.120374 0.074967
4966.5 4966.5 0.500000 2.612511 15.0411 1.103282 0.081265
4967.25 4967.25 0.500000 2.664406 15.0505 1.048102 0.080513
4968 4968 0.500000 2.656602 15.065 1.057355 0.079218
4968.75 4968.75 0.500000 2.695933 15.0772 1.017516 0.072412
4969.5 4969.5 0.500000 2.777324 15.0833 0.938256 0.064401
4970.25 4970.25 0.500000 2.792639 15.0956 0.924754 0.062411
4971 4971 0.500000 2.753559 15.1558 0.965457 0.064054
4971.75 4971.75 0.500000 2.725507 15.1769 0.994280 0.063332
4972.5 4972.5 0.500000 2.756878 15.1907 0.964458 0.058289
4973.25 4973.25 0.500000 2.764262 15.2018 0.958082 0.053760
4974 4974 0.500000 2.734594 15.2133 0.987625 0.052156
4974.75 4974.75 0.500000 2.714499 15.2178 1.007998 0.050386
4975.5 4975.5 0.500000 2.728652 15.2226 0.994059 0.046933
4976.25 4976.25 0.500000 2.777512 15.2235 0.946866 0.042264
4977 4977 0.500000 2.853337 15.2248 0.877902 0.037628
4977.75 4977.75 0.500000 2.950165 15.2548 0.798414 0.033262
4978.5 4978.5 0.500000 3.059489 15.264 0.715964 0.029283
4979.25 4979.25 0.500000 3.143861 15.2659 0.658203 0.026555
4980 4980 0.500000 3.189121 15.2614 0.628968 0.025547
4980.75 4980.75 0.500000 3.251212 15.256 0.590736 0.023771
4981.5 4981.5 0.500000 3.340351 15.2524 0.540424 0.021814
4982.25 4982.25 0.500000 3.450295 15.2639 0.484372 0.019319
4983 4983 0.500000 3.565734 15.2681 0.431684 0.017124
4983.75 4983.75 0.500000 3.668571 15.2659 0.389394 0.015917
4984.5 4984.5 0.500000 3.757254 15.2645 0.356405 0.014856
4985.25 4985.25 0.500000 3.812610 15.2706 0.337356 0.014273
4986 4986 0.500000 3.839846 15.2758 0.328369 0.014094
4986.75 4986.75 0.500000 3.854080 15.2743 0.323711 0.013969
4987.5 4987.5 0.500000 3.878347 15.2677 0.315785 0.013816
4988.25 4988.25 0.500000 3.920052 15.2819 0.303200 0.013436
4989 4989 0.500000 3.951833 15.3097 0.294248 0.013094
4989.75 4989.75 0.500000 3.948326 15.3502 0.296098 0.012941
4990.5 4990.5 0.500000 3.906968 15.3861 0.309282 0.013411
4991.25 4991.25 0.500000 3.857382 15.425 0.325820 0.014492
4992 4992 0.500000 3.822573 15.451 0.337927 0.014857
4992.75 4992.75 0.500000 3.799549 15.4796 0.346439 0.015236
4993.5 4993.5 0.500000 3.775233 15.5183 0.355866 0.015491
4994.25 4994.25 0.500000 3.748225 15.5376 0.366059 0.015890
4995 4995 0.500000 3.729331 15.5506 0.373361 0.016221
4995.75 4995.75 0.500000 3.720194 15.5625 0.377069 0.016054
4998.19 4998.18 0.730000 3.747400 22.7434 0.536288 0.021496
5001.58 5001.58 0.760000 3.821975 23.7765 0.520363 0.020995
5005.17 5005.16 0.800000 3.775058 25.2067 0.578130 0.023837
5008.91 5008.91 0.840000 3.632079 26.6584 0.705372 0.030564
5012.83 5012.83 0.880000 3.519786 28.1611 0.833724 0.036764
5016.94 5016.93 0.910000 3.508376 29.2847 0.876943 0.039805
5021.2 5021.19 0.950000 3.480570 30.7654 0.947311 0.043898
5025.64 5025.63 0.990000 3.438311 32.27 1.036474 0.048040
5030.25 5030.24 1.030000 3.454883 33.7866 1.067347 0.048560
5035.02 5035.01 1.060000 3.497641 35.0625 1.061287 0.045677
5039.97 5039.97 1.100000 3.519067 36.6183 1.084909 0.045464
5045.09 5045.09 1.140000 3.522671 38.2017 1.127733 0.048420
5050.38 5050.38 1.180000 3.519732 39.8087 1.178633 0.054196
5055.84 5055.84 1.210000 3.520732 41.1095 1.215927 0.058774
5061.47 5061.48 1.250000 3.527675 42.7799 1.256578 0.061074
5067.28 5067.29 1.290000 3.502793 44.4791 1.339397 0.066804
5073.27 5073.27 1.330000 3.466977 46.2084 1.442222 0.072350
5079.42 5079.42 1.360000 3.455552 47.6131 1.503139 0.073458
5085.74 5085.74 1.400000 3.443748 49.3852 1.577605 0.073634
5092.23 5092.23 1.440000 3.411221 51.1979 1.689570 0.077479
5098.9 5098.9 1.480000 3.371605 53.0681 1.822079 0.089063
5105.74 5105.74 1.510000 3.341891 54.7165 1.935308 0.100980
5112.74 5112.74 1.550000 3.335999 56.6365 2.015071 0.106172
5119.92 5119.92 1.590000 3.341096 58.5982 2.074270 0.109891
5127.27 5127.27 1.630000 3.346459 60.5867 2.133185 0.114830
5134.79 5134.79 1.660000 3.340042 62.2433 2.205618 0.119629
5142.49 5142.49 1.700000 3.332868 64.4432 2.300030 0.123056
5150.35 5150.35 1.740000 3.312042 66.5997 2.427011 0.128456
5158.39 5158.39 1.780000 3.283648 68.7555 2.577728 0.140302
5166.6 5166.6 1.810000 3.258135 70.693 2.718837 0.152199
5174.98 5174.98 1.850000 3.242940 72.8547 2.844883 0.164536
5183.53 5183.53 1.890000 3.227116 75.0951 2.979147 0.176197
5192.25 5192.25 1.930000 3.212328 77.306 3.112543 0.185592
5201.14 5201.14 1.960000 3.194169 79.1006 3.243169 0.194313
5210.21 5210.21 2.000000 3.170946 81.4125 3.416397 0.204606
5219.45 5219.45 2.040000 3.148331 83.7357 3.594251 0.217881
5228.85 5228.85 2.080000 3.131036 86.1478 3.762288 0.231932
5238.43 5238.43 2.110000 3.115511 88.2299 3.913510 0.246175
5248.18 5248.18 2.150000 3.100811 90.3498 4.066876 0.262389
5258.11 5258.11 2.190000 3.083568 93.3941 4.277042 0.281489
5268.2 5268.2 2.230000 3.061376 96.066 4.498115 0.300329
5278.47 5278.47 2.260000 3.041344 97.1292 4.639927 0.312036
5288.9 5288.9 2.300000 3.019223 101.203 4.942685 0.335702
5299.51 5299.51 2.340000 2.998376 103.839 5.178227 0.357630
5310.29 5310.29 2.380000 2.978226 106.816 5.435111 0.381574
5321.24 5321.24 2.410000 2.956552 108.867 5.660877 0.403682
5332.36 5332.36 2.450000 2.932280 111.076 5.917656 0.429831
5343.66 5343.66 2.490000 2.909289 113.809 6.204269 0.460013
5355.12 5355.12 2.530000 2.888305 115.223 6.414494 0.483787
5366.76 5366.76 2.560000 2.865280 118.22 6.734666 0.514342
5378.57 5378.57 2.600000 2.842942 120.446 7.016466 0.543195
5390.55 5390.55 2.640000 2.818170 122.606 7.321425 0.576259
5402.7 5402.7 2.680000 2.793524 124.788 7.637668 0.611610
5415.02 5415.02 2.710000 2.767177 126.312 7.937341 0.646515
5427.52 5427.52 2.750000 2.742781 128.099 8.248426 0.683898
5440.18 5440.18 2.790000 2.719665 130.456 8.596641 0.725968
5453.02 5453.02 2.830000 2.696767 133.061 8.971365 0.769627
5466.03 5466.03 2.860000 2.673526 135.224 9.331598 0.813554
5479.21 5479.21 2.900000 2.654392 138.039 9.709937 0.860052
5492.56 5492.56 2.940000 2.633285 140.897 10.1223 0.911373
5506.08 5506.08 2.980000 2.607937 143.804 10.5965 0.970263
5519.78 5519.78 3.010000 2.585253 146.4 11.0352 1.027474
5533.64 5533.64 3.050000 2.565058 149.689 11.5134 1.090324
5547.68 5547.68 3.090000 2.543164 152.976 12.0266 1.159561
5561.89 5561.89 3.130000 2.520327 156.664 12.601 1.235161
5576.27 5576.27 3.160000 2.496882 159.399 13.1251 1.307611
5590.82 5590.82 3.200000 2.473636 162.678 13.7102 1.389290
5605.54 5605.54 3.240000 2.451595 166.612 14.3546 1.479075
5620.44 5620.44 3.280000 2.429675 169.973 14.9687 1.568769
5635.5 5635.5 3.310000 2.406321 171.54 15.4637 1.649384
5650.74 5650.74 3.350000 2.385293 174.579 16.0721 1.744857
5666.15 5666.15 3.390000 2.363305 178.198 16.7699 1.852751
5681.73 5681.73 3.430000 2.341312 182.448 17.5517 1.971869
5697.48 5697.48 3.460000 2.319335 185.501 18.242 2.086079
5708.08 5708.08 3.490000 2.304728 187.851 18.7449 2.168523