Folder: webxdiviewer/xdidata/Tm (part 2)

File: Tm-L3-Tm2TiO5.xdi
# XDI/1.0 BlueSky/1.10.0 BMM/2023-1.0-py310-tiled
# Beamline.name: BMM (06BM) -- Beamline for Materials Measurement (NIST)
# Beamline.xray_source: NSLS-II three-pole wiggler
# Beamline.collimation: paraboloid mirror, 5 nm Rh on 30 nm Pt
# Beamline.focusing: not in use
# Beamline.harmonic_rejection: flat mirror, Pt stripe, pitch = 7.0 mrad relative to beam
# Beamline.software: Bluesky 1.10.0, Ophyd 1.7.0, DataBroker 2.0.0b13, Python 3.10.8, 2023-1.0-py310-tiled
# Detector.I0: 10 cm N2
# Detector.I1: 25 cm N2
# Detector.I2: 25 cm N2
# Element.symbol: Tm
# Element.edge: L3
# Element.reference: Tm
# Element.reference_material: Tm2O3
# Facility.name: NSLS-II
# Facility.energy: 3.0
# Facility.current: 400.7
# Facility.mode: top-off
# Facility.GUP: 123456
# Facility.SAF: 301027
# Facility.cycle: 2023-2
# Mono.name: Si(111)
# Mono.d_spacing: 3.13519
# Mono.encoder_resolution: 0.0000050 deg/ct
# Mono.angle_offset: 16.0754 deg
# Mono.scan_mode: pseudo channel cut
# Mono.scan_type: step
# Mono.direction: forward in energy
# Sample.name: Tm2TiO5
# Sample.prep: Powder in PEG pellet
# Sample.x: 149.848 mm
# Sample.y: 114.690 mm
# Sample.SDD_position: 205.000 mm
# Scan.experimenters: Bruce Ravel
# Scan.edge_energy: 8648.0
# Scan.start_time: 2023-05-08T19:21:33
# Scan.end_time: 2023-05-08T19:27:17
# Scan.transient_id: 75533
# Scan.uid: 3f165f0e-0a92-4c7c-b390-734ad92f043a
# Scan.plot_hint: ln(I0/It)  --  ln($5/$6)
# Column.1: energy eV
# Column.2: requested_energy eV
# Column.3: measurement_time seconds
# Column.4: xmu
# Column.5: I0 nA
# Column.6: It nA
# Column.7: Ir nA
# ///////////
# sample courtesy Martin Stennett, University of Sheffield
# -----------
# energy  requested_energy  measurement_time  xmu  I0  It  Ir
  8448.025  8448.000  0.500  0.493271  129.13  78.8499  28.4767
  8468.021  8468.000  0.500  0.486153  128.749  79.1789  28.794
  8488.035  8488.000  0.500  0.478890  128.365  79.5184  29.1177
  8508.025  8508.000  0.500  0.471686  127.998  79.8642  29.4452
  8528.022  8528.000  0.500  0.464512  126.913  79.7575  29.6038
  8547.996  8548.000  0.500  0.457541  127.122  80.4473  30.0558
  8568.004  8568.000  0.500  0.450438  126.756  80.7875  30.3794
  8588.004  8588.000  0.500  0.443530  125.944  80.8267  30.5741
  8608.008  8608.000  0.500  0.437012  125.409  81.0099  30.7856
  8619.992  8620.000  0.500  0.433544  125.993  81.6693  31.0557
  8623.981  8624.000  0.500  0.432886  126.658  82.1551  31.2164
  8627.979  8628.000  0.500  0.432079  126.294  81.9851  31.0908
  8631.988  8632.000  0.500  0.431922  126.021  81.8202  30.9114
  8635.985  8636.000  0.500  0.432193  125.72  81.6031  30.58
  8638.472  8638.500  0.500  0.433406  125.42  81.3092  30.159
  8639.473  8639.500  0.500  0.434316  125.157  81.065  29.8698
  8640.473  8640.500  0.500  0.435598  124.679  80.6523  29.4513
  8641.484  8641.500  0.500  0.437091  123.122  79.5263  28.7205
  8642.482  8642.500  0.500  0.438577  115.314  74.3724  26.5803
  8643.480  8643.500  0.500  0.440025  109.613  70.5929  24.9571
  8644.481  8644.500  0.500  0.442145  118.764  76.3241  26.5562
  8645.480  8645.500  0.500  0.445334  124.391  79.6861  27.0435
  8646.482  8646.500  0.500  0.449803  125.199  79.8464  26.0736
  8647.491  8647.500  0.500  0.455931  125.389  79.4787  24.4202
  8648.490  8648.500  0.500  0.463794  125.436  78.8859  22.0347
  8649.490  8649.500  0.500  0.472207  125.436  78.225  19.1529
  8650.486  8650.500  0.500  0.480159  125.427  77.5998  16.3268
  8651.483  8651.500  0.500  0.485904  125.4  77.1386  14.2577
  8652.499  8652.500  0.500  0.488874  125.38  76.8978  13.274
  8653.500  8653.500  0.500  0.489640  125.351  76.8207  12.8535
  8654.501  8654.500  0.500  0.488538  125.316  76.8843  12.9101
  8655.495  8655.500  0.500  0.485747  125.286  77.0808  13.7136
  8656.490  8656.500  0.500  0.481436  125.247  77.3897  15.1714
  8657.495  8657.500  0.500  0.476132  125.213  77.7797  16.9867
  8658.496  8658.500  0.500  0.471503  125.186  78.1237  18.6465
  8659.492  8659.500  0.500  0.467631  125.155  78.4079  19.8591
  8660.491  8660.500  0.500  0.464581  125.124  78.6276  20.7105
  8661.500  8661.500  0.500  0.462306  125.092  78.7869  21.3214
  8662.506  8662.500  0.500  0.460477  125.055  78.9075  21.7607
  8663.509  8663.500  0.500  0.459146  125.027  78.9948  22.0792
  8664.492  8664.500  0.500  0.458244  125.005  79.0525  22.3014
  8665.489  8665.500  0.500  0.457524  124.967  79.0853  22.4417
  8666.496  8666.500  0.500  0.457054  124.931  79.0995  22.5047
  8667.506  8667.500  0.500  0.456775  124.901  79.1026  22.4858
  8668.498  8668.500  0.500  0.456737  124.874  79.0888  22.3998
  8669.492  8669.500  0.500  0.456811  124.86  79.0739  22.3118
  8670.500  8670.500  0.500  0.456583  124.825  79.0694  22.2585
  8671.505  8671.500  0.500  0.456708  124.788  79.0363  22.2492
  8672.503  8672.500  0.500  0.456427  124.766  79.0446  22.2981
  8674.000  8673.990  0.500  0.455905  124.721  79.0575  22.4423
  8676.018  8676.010  0.500  0.455162  124.674  79.0863  22.624
  8678.124  8678.120  0.500  0.454732  124.628  79.091  22.5828
  8680.303  8680.300  0.500  0.454939  124.566  79.0357  22.2874
  8682.567  8682.560  0.500  0.455105  124.513  78.9886  21.9087
  8684.903  8684.890  0.500  0.455483  124.45  78.919  21.4691
  8687.312  8687.300  0.500  0.455901  124.396  78.8515  20.9775
  8689.778  8689.780  0.500  0.455925  124.332  78.8094  20.6727
  8692.346  8692.340  0.500  0.455139  124.267  78.8301  20.741
  8694.990  8694.980  0.500  0.453355  124.185  78.9187  21.078
  8697.697  8697.700  0.500  0.451386  124.099  79.0193  21.4764
  8700.501  8700.490  0.500  0.449546  123.986  79.0929  21.7783
  8703.358  8703.350  0.500  0.448000  123.744  79.0603  21.9539
  8706.299  8706.290  0.500  0.446795  121.249  77.5599  21.7065
  8709.321  8709.310  0.500  0.445300  119.433  76.5124  21.5528
  8712.419  8712.410  0.500  0.444683  123.592  79.2257  22.4008
  8715.591  8715.580  0.500  0.443590  123.689  79.3746  22.5153
  8718.838  8718.830  0.500  0.442864  123.644  79.4038  22.5528
  8722.153  8722.150  0.500  0.442102  123.593  79.431  22.5405
  8725.548  8725.550  0.500  0.441211  124.004  79.7666  22.5486
  8729.039  8729.030  0.500  0.440241  123.925  79.7932  22.4223
  8732.594  8732.580  0.500  0.439541  123.843  79.7961  22.3001
  8736.215  8736.210  0.500  0.438276  123.757  79.8416  22.2315
  8739.924  8739.910  0.500  0.437629  123.673  79.8387  22.2078
  8743.708  8743.690  0.500  0.436563  123.585  79.8673  22.239
  8747.562  8747.550  0.500  0.435358  123.503  79.9106  22.2813
  8751.485  8751.480  0.500  0.434244  123.413  79.9415  22.3087
  8755.498  8755.490  0.500  0.433023  123.315  79.9757  22.3559
  8759.590  8759.580  0.500  0.431678  123.242  80.0358  22.4253
  8763.749  8763.740  0.500  0.430215  123.138  80.0848  22.4815
  8767.994  8767.980  0.500  0.428702  123.038  80.1416  22.531
  8772.304  8772.290  0.500  0.427198  122.939  80.1975  22.6192
  8776.693  8776.680  0.500  0.425799  122.839  80.2441  22.7713
  8781.167  8781.150  0.500  0.424243  122.74  80.3042  22.9506
  8785.709  8785.690  0.500  0.422679  122.609  80.3443  23.1038
  8790.335  8790.310  0.500  0.421505  122.5  80.3672  23.144
  8795.023  8795.000  0.500  0.420236  122.374  80.3862  23.0886
[...]
  8809.564  8809.550  0.500  0.416126  122.034  80.4934  22.9912
  8814.564  8814.550  0.500  0.414646  121.911  80.531  22.9251
  8819.633  8819.620  0.500  0.413009  121.797  80.5875  22.926
  8824.781  8824.770  0.500  0.411414  121.683  80.6408  23.0409
  8830.010  8830.000  0.500  0.409821  121.568  80.6928  23.2227
  8835.322  8835.310  0.500  0.408212  121.455  80.7477  23.3542
  8840.705  8840.690  0.500  0.406499  121.339  80.8093  23.4346
  8846.175  8846.150  0.500  0.404883  121.22  80.8603  23.4533
  8851.699  8851.680  0.500  0.403441  121.108  80.9025  23.4682
  8857.302  8857.290  0.500  0.401958  120.989  80.943  23.4881
  8862.989  8862.970  0.500  0.400291  120.872  80.9996  23.5134
  8868.758  8868.740  0.500  0.398320  120.75  81.0775  23.6018
  8874.596  8874.570  0.500  0.396560  120.642  81.1475  23.7389
  8880.520  8880.490  0.500  0.394890  120.509  81.1937  23.8539
  8886.513  8886.480  0.500  0.393150  120.388  81.2535  23.9331
  8892.569  8892.550  0.500  0.391376  120.261  81.3117  23.9662
  8898.708  8898.690  0.500  0.389678  120.135  81.3646  23.9867
  8904.928  8904.910  0.500  0.387593  119.974  81.4248  24.0132
  8911.208  8911.200  0.500  0.385906  118.564  80.6037  23.7831
  8917.576  8917.570  0.500  0.384092  117.493  80.0207  23.6326
  8924.038  8924.020  0.500  0.382220  118.245  80.6837  23.8853
  8930.562  8930.550  0.500  0.380232  117.955  80.646  23.9324
  8937.171  8937.150  0.500  0.378386  119.309  81.723  24.3305
  8943.839  8943.820  0.500  0.376441  119.204  81.8093  24.4509
  8950.592  8950.570  0.500  0.374525  119.046  81.8581  24.5554
  8957.419  8957.400  0.500  0.372523  118.878  81.9064  24.6188
  8964.328  8964.310  0.500  0.370619  118.677  81.9237  24.6609
  8971.304  8971.290  0.500  0.368865  118.561  81.9869  24.7114
  8978.374  8978.350  0.500  0.366694  118.396  82.0511  24.791
  8985.501  8985.480  0.500  0.364756  118.175  82.0565  24.87
  8992.706  8992.690  0.500  0.362698  117.79  81.9578  24.9089
  9000.003  8999.980  0.500  0.360896  117.777  82.0969  25.0108
  9007.368  9007.340  0.500  0.358621  117.65  82.1946  25.0882
  9014.794  9014.780  0.500  0.356545  117.502  82.2622  25.1638
  9022.306  9022.290  0.500  0.354637  117.372  82.3283  25.2565
  9029.905  9029.880  0.500  0.352468  117.198  82.3845  25.3311
  9037.574  9037.550  0.500  0.350455  117.006  82.415  25.3842
  9045.301  9045.290  0.500  0.348243  116.773  82.4334  25.4384
  9053.127  9053.110  0.500  0.346089  116.599  82.4883  25.5163
  9061.034  9061.010  0.500  0.343771  116.399  82.5372  25.6039
  9069.001  9068.980  0.500  0.341696  116.198  82.5659  25.6895
  9077.043  9077.030  0.500  0.339496  116.006  82.6112  25.7879
  9085.156  9085.150  0.500  0.337265  115.749  82.6121  25.8675
  9093.370  9093.350  0.500  0.335188  115.56  82.6492  25.9689
  9101.635  9101.630  0.500  0.332860  115.359  82.6973  26.0682
  9109.993  9109.980  0.500  0.330604  115.127  82.7174  26.1322
  9118.425  9118.410  0.500  0.328405  114.923  82.7531  26.1868
  9126.927  9126.910  0.500  0.326384  114.698  82.7578  26.2309
  9135.506  9135.490  0.500  0.323956  114.439  82.772  26.3074
  9144.173  9144.150  0.500  0.321588  110.463  80.0856  25.5301
  9152.912  9152.890  0.500  0.319493  113.994  82.8185  26.491
  9161.722  9161.700  0.500  0.317110  113.853  82.9138  26.6062
  9170.589  9170.580  0.500  0.314700  113.713  83.0117  26.7215
  9179.554  9179.540  0.500  0.312384  113.248  82.8637  26.7645
  9188.602  9188.580  0.500  0.310037  113.236  83.0494  26.9073
  9193.150  9193.130  0.500  0.308849  113.074  83.0292  26.9325