Folder: webxdiviewer/xdidata/V (part 2)

File: V-VanadylSulfate.xdi
# XDI/1.0 BlueSky/1.10.0 BMM/2023-1.0-py310-tiled
# Beamline.name: BMM (06BM) -- Beamline for Materials Measurement (NIST)
# Beamline.xray_source: NSLS-II three-pole wiggler
# Beamline.collimation: paraboloid mirror, 5 nm Rh on 30 nm Pt
# Beamline.focusing: not in use
# Beamline.harmonic_rejection: flat mirror, Si stripe, pitch = 7.0 mrad relative to beam
# Beamline.software: Bluesky 1.10.0, Ophyd 1.7.0, DataBroker 2.0.0b13, Python 3.10.8, 2023-1.0-py310-tiled
# Detector.I0: 10 cm N2
# Detector.I1: 25 cm N2
# Detector.I2: 25 cm N2
# Element.symbol: V
# Element.edge: K
# Element.reference: V
# Element.reference_material: V foil
# Facility.name: NSLS-II
# Facility.energy: 3.0
# Facility.current: 399.6
# Facility.mode: top-off
# Facility.GUP: 123456
# Facility.SAF: 301027
# Facility.cycle: 2023-2
# Mono.name: Si(111)
# Mono.d_spacing: 3.13519
# Mono.encoder_resolution: 0.0000050 deg/ct
# Mono.angle_offset: 16.0754 deg
# Mono.scan_mode: pseudo channel cut
# Mono.scan_type: step
# Mono.direction: forward in energy
# Sample.name: VOSO4
# Sample.prep: Powder in PEG pellet
# Sample.x: 116.329 mm
# Sample.y: 114.126 mm
# Sample.SDD_position: 205.000 mm
# Scan.experimenters: Bruce Ravel
# Scan.edge_energy: 5465.1
# Scan.start_time: 2023-05-06T09:43:52
# Scan.end_time: 2023-05-06T09:51:11
# Scan.transient_id: 74694
# Scan.uid: ed762c0c-34cd-46ca-9d20-acedc82783c2
# Scan.plot_hint: ln(I0/It)  --  ln($5/$6)
# Column.1: energy eV
# Column.2: requested_energy eV
# Column.3: measurement_time seconds
# Column.4: xmu
# Column.5: I0 nA
# Column.6: It nA
# Column.7: Ir nA
# ///////////
# Sigma Aldrich; Vanadium (IV) oxide sulfate hydrate (97%); 233706
# -----------
# energy  requested_energy  measurement_time  xmu  I0  It  Ir
  5265.103  5265.100  0.500  5.279121  98.7382  0.503260  0.077773
  5295.113  5295.100  0.500  5.181360  100.621  0.565526  0.090582
  5325.112  5325.100  0.500  5.085683  102.314  0.632780  0.104420
  5355.150  5355.100  0.500  4.990747  103.937  0.706833  0.120065
  5385.096  5385.100  0.500  4.899348  105.501  0.786132  0.137550
  5415.094  5415.100  0.500  4.809462  106.845  0.871026  0.156914
  5437.095  5437.100  0.500  4.745437  107.648  0.935596  0.171523
  5443.094  5443.100  0.500  4.730052  108.229  0.955230  0.176362
  5449.092  5449.100  0.500  4.712611  108.491  0.974393  0.180345
  5455.095  5455.100  0.500  4.697307  108.708  0.991400  0.184139
  5455.991  5456.000  0.500  4.695770  108.719  0.993018  0.184376
  5456.893  5456.900  0.500  4.692840  108.712  0.995874  0.184955
  5457.793  5457.800  0.500  4.690561  108.762  0.998598  0.185426
  5458.690  5458.700  0.500  4.689788  108.756  0.999324  0.185276
  5459.595  5459.600  0.500  4.687321  108.774  1.001952  0.185646
  5460.493  5460.500  0.500  4.685550  108.808  1.004045  0.185571
  5461.396  5461.400  0.500  4.684482  108.801  1.005047  0.185004
  5462.293  5462.300  0.500  4.683432  108.851  1.006572  0.183980
  5463.197  5463.200  0.500  4.682976  108.884  1.007333  0.180068
  5464.098  5464.100  0.500  4.683681  108.903  1.006804  0.163109
  5464.995  5465.000  0.500  4.687237  108.938  1.003551  0.136324
  5465.898  5465.900  0.500  4.700386  108.951  0.990557  0.141110
  5466.798  5466.800  0.500  4.740845  108.974  0.951482  0.134883
  5467.701  5467.700  0.500  4.789717  108.987  0.906205  0.122064
  5468.595  5468.600  0.500  4.992830  109.035  0.739958  0.094633
  5469.501  5469.500  0.500  4.981594  109.051  0.748431  0.092184
  5470.396  5470.400  0.500  4.838583  109.066  0.863613  0.104671
  5471.300  5471.300  0.500  4.740902  109.08  0.952353  0.114759
  5472.196  5472.200  0.500  4.723664  109.075  0.968866  0.114046
  5473.100  5473.100  0.500  4.737944  109.111  0.955443  0.106248
  5474.000  5474.000  0.500  4.785225  109.131  0.911488  0.094006
  5474.900  5474.900  0.500  4.851715  109.139  0.852913  0.082841
  5475.798  5475.800  0.500  4.936634  109.135  0.783449  0.072466
  5476.702  5476.700  0.500  5.022579  109.15  0.719026  0.063506
  5477.606  5477.600  0.500  5.079229  109.162  0.679501  0.057534
  5478.500  5478.500  0.500  5.161500  109.175  0.625909  0.050884
  5479.402  5479.400  0.500  5.301647  109.193  0.544151  0.042740
  5480.299  5480.300  0.500  5.461302  109.22  0.463971  0.035240
  5481.204  5481.200  0.500  5.602249  109.216  0.402958  0.029594
  5482.105  5482.100  0.500  5.690530  109.223  0.368934  0.026424
  5483.000  5483.000  0.500  5.732971  109.225  0.353610  0.024490
  5483.903  5483.900  0.500  5.750321  109.231  0.347547  0.024137
  5484.802  5484.800  0.500  5.757928  109.228  0.344904  0.024662
  5485.701  5485.700  0.500  5.748073  109.242  0.348363  0.025939
  5486.599  5486.600  0.500  5.721214  109.216  0.357763  0.027811
  5487.500  5487.500  0.500  5.704267  109.261  0.364025  0.028733
  5488.403  5488.400  0.500  5.696615  109.274  0.366867  0.029237
  5489.299  5489.300  0.500  5.687554  109.254  0.370137  0.029163
  5490.100  5490.100  0.500  5.681007  109.274  0.372637  0.029129
  5493.119  5493.110  0.500  5.679166  109.333  0.373527  0.027815
  5496.301  5496.300  0.500  5.641349  109.673  0.389128  0.029803
  5499.662  5499.660  0.500  5.607357  109.702  0.402690  0.030062
  5503.185  5503.180  0.500  5.537869  109.764  0.431912  0.031473
  5506.882  5506.880  0.500  5.476626  109.8  0.459341  0.032950
  5510.759  5510.750  0.500  5.435796  109.9  0.478918  0.033830
  5514.808  5514.800  0.500  5.424290  109.939  0.484630  0.034766
  5519.016  5519.010  0.500  5.444077  109.981  0.475320  0.035293
  5523.395  5523.390  0.500  5.457318  110.017  0.469222  0.036579
  5527.957  5527.950  0.500  5.447597  110.111  0.474207  0.038445
  5532.691  5532.680  0.500  5.447736  110.145  0.474290  0.038798
  5537.588  5537.580  0.500  5.443003  110.2  0.476776  0.037045
  5542.661  5542.650  0.500  5.431090  110.268  0.482787  0.037457
  5547.899  5547.890  0.500  5.411168  110.317  0.492722  0.040591
  5553.324  5553.310  0.500  5.383207  110.39  0.507028  0.043241
  5558.897  5558.890  0.500  5.355622  110.443  0.521462  0.041200
  5564.670  5564.650  0.500  5.323756  110.502  0.538633  0.039433
  5570.592  5570.580  0.500  5.296543  110.515  0.553555  0.042159
  5576.693  5576.680  0.500  5.273313  110.627  0.567140  0.047441
  5582.966  5582.950  0.500  5.253379  110.684  0.578858  0.049832
  5589.383  5589.390  0.500  5.237159  110.737  0.588602  0.050629
  5595.991  5596.000  0.500  5.227052  110.762  0.594720  0.052717
  5602.808  5602.790  0.500  5.217047  110.813  0.600972  0.053333
  5609.751  5609.750  0.500  5.205286  110.848  0.608278  0.053082
  5616.871  5616.870  0.500  5.191695  110.886  0.616810  0.053293
  5624.189  5624.170  0.500  5.174062  110.894  0.627826  0.052463
  5631.645  5631.650  0.500  5.151123  110.908  0.642481  0.054826
  5639.298  5639.290  0.500  5.121997  110.907  0.661460  0.059453
  5647.100  5647.100  0.500  5.092265  110.881  0.681260  0.062774
  5655.090  5655.090  0.500  5.062190  110.801  0.701555  0.065828
  5663.256  5663.250  0.500  5.031589  110.684  0.722594  0.069017
  5671.572  5671.570  0.500  5.003744  110.556  0.742139  0.072653
  5680.077  5680.070  0.500  4.977855  110.323  0.759993  0.073723
  5688.755  5688.750  0.500  4.955139  110.04  0.775465  0.073701
  5697.596  5697.590  0.500  4.932541  109.774  0.791267  0.074247
  5706.621  5706.600  0.500  4.911121  109.386  0.805544  0.078291
  5715.801  5715.790  0.500  4.888610  108.948  0.820586  0.082654
  5725.150  5725.150  0.500  4.865262  108.422  0.835915  0.085445
  5734.689  5734.670  0.500  4.841300  107.851  0.851676  0.088367
  5744.400  5744.370  0.500  4.816040  107.173  0.867975  0.090961
  5754.277  5754.250  0.500  4.789209  106.448  0.885543  0.094395
  5764.276  5764.290  0.500  4.761783  105.633  0.903202  0.096517
  5774.483  5774.500  0.500  4.732955  104.808  0.922357  0.098563
  5784.882  5784.890  0.500  4.702464  103.871  0.942408  0.101504
  5795.441  5795.450  0.500  4.674183  102.962  0.960962  0.105152
  5806.186  5806.180  0.500  4.646782  102.031  0.978721  0.109625
  5817.064  5817.080  0.500  4.619733  101.043  0.995827  0.113416
  5828.134  5828.150  0.500  4.592999  100.091  1.013168  0.116784
  5839.380  5839.390  0.500  4.566847  99.5082  1.033957  0.120423
  5850.798  5850.810  0.500  4.539227  98.5337  1.052504  0.124172
  5862.381  5862.390  0.500  4.511508  97.383  1.069450  0.127538
  5874.139  5874.150  0.500  4.484480  88.869  1.002687  0.120293
  5886.061  5886.080  0.500  4.454927  96.514  1.121606  0.136552
  5898.173  5898.180  0.500  4.426262  95.4509  1.141508  0.141142
  5910.457  5910.450  0.500  4.397354  93.9814  1.156898  0.144950
  5922.876  5922.890  0.500  4.367708  94.2188  1.194720  0.151799
  5935.496  5935.510  0.500  4.338193  93.3068  1.218597  0.156577
  5948.278  5948.290  0.500  4.309293  93.1629  1.252393  0.163343
  5961.234  5961.250  0.500  4.279126  91.6834  1.270252  0.167848
  5974.367  5974.380  0.500  4.249505  90.4141  1.290326  0.172487
  5987.665  5987.680  0.500  4.220486  87.007  1.278264  0.172792
  6001.136  6001.150  0.500  4.190970  89.0667  1.347721  0.184517
  6014.786  6014.800  0.500  4.161123  87.7246  1.367631  0.189821
  6028.597  6028.610  0.500  4.130419  86.5124  1.390785  0.195617
  6042.589  6042.600  0.500  4.099405  85.2741  1.414060  0.201617
  6056.748  6056.760  0.500  4.068656  83.8511  1.433884  0.207141
  6071.077  6071.090  0.500  4.038595  82.3574  1.451321  0.212424
  6085.577  6085.590  0.500  4.008253  80.8899  1.469373  0.217867
  6100.248  6100.260  0.500  3.977913  79.3644  1.486073  0.222989
  6105.180  6105.190  0.500  3.968084  78.8193  1.490444  0.224761

File: V-Vfoil.xdi
# XDI/1.0 BlueSky/1.10.0 BMM/2023-1.0-py310-tiled
# Beamline.name: BMM (06BM) -- Beamline for Materials Measurement (NIST)
# Beamline.xray_source: NSLS-II three-pole wiggler
# Beamline.collimation: paraboloid mirror, 5 nm Rh on 30 nm Pt
# Beamline.focusing: not in use
# Beamline.harmonic_rejection: flat mirror, Si stripe, pitch = 7.0 mrad relative to beam
# Beamline.software: Bluesky 1.10.0, Ophyd 1.7.0, DataBroker 2.0.0b13, Python 3.10.8, 2023-1.0-py310-tiled
# Detector.I0: 10 cm N2
# Detector.I1: 25 cm N2
# Detector.I2: 25 cm N2
# Element.symbol: V
# Element.edge: K
# Element.reference: V
# Element.reference_material: V foil
# Facility.name: NSLS-II
# Facility.energy: 3.0
# Facility.current: 399.8
# Facility.mode: top-off
# Facility.GUP: 123456
# Facility.SAF: 301027
# Facility.cycle: 2023-2
# Mono.name: Si(111)
# Mono.d_spacing: 3.13519
# Mono.encoder_resolution: 0.0000050 deg/ct
# Mono.angle_offset: 16.0754 deg
# Mono.scan_mode: pseudo channel cut
# Mono.scan_type: step
# Mono.direction: forward in energy
# Sample.name: V foil
# Sample.prep: foil reference
# Sample.x: 116.329 mm
# Sample.y: 114.126 mm
# Sample.SDD_position: 205.000 mm
# Scan.experimenters: Bruce Ravel
# Scan.edge_energy: 5465.1
# Scan.start_time: 2023-05-06T09:51:57
# Scan.end_time: 2023-05-06T09:59:21
# Scan.transient_id: 74699
# Scan.uid: f8d5b096-3de6-434a-a31d-33a75c383afc
# Scan.plot_hint: ln(It/Ir)  --  ln($6/$7)
# Column.1: energy eV
# Column.2: requested_energy eV
# Column.3: measurement_time seconds
# Column.4: xmu
# Column.5: I0 nA
# Column.6: It nA
# Column.7: Ir nA
# ///////////
# foil
# -----------
# energy  requested_energy  measurement_time  xmu  I0  It  Ir
  5265.104  5265.100  0.500  1.865526  98.7732  18.2555  2.826223
  5295.111  5295.100  0.500  1.833615  100.623  19.3411  3.091371
  5325.113  5325.100  0.500  1.802446  102.33  20.4584  3.373486
  5355.389  5355.100  0.500  1.772080  103.909  21.5846  3.668933
  5385.097  5385.100  0.500  1.742529  105.43  22.7301  3.979518
  5415.094  5415.100  0.500  1.714016  106.755  23.8675  4.299513
  5437.094  5437.100  0.500  1.694276  107.577  24.6725  4.533134
  5443.093  5443.100  0.500  1.689209  107.954  24.9387  4.605327
  5449.095  5449.100  0.500  1.685101  108.302  25.2057  4.673781
  5455.095  5455.100  0.500  1.682575  108.532  25.4409  4.729321
  5455.989  5456.000  0.500  1.682369  108.527  25.4754  4.736713
  5456.890  5456.900  0.500  1.682608  108.547  25.4842  4.737231
  5457.791  5457.800  0.500  1.682988  108.556  25.5279  4.743535
  5458.690  5458.700  0.500  1.683801  108.558  25.5515  4.744072
  5459.595  5459.600  0.500  1.685191  108.583  25.5933  4.745221
  5460.494  5460.500  0.500  1.687510  108.582  25.5865  4.732971
  5461.398  5461.400  0.500  1.691595  108.609  25.6483  4.725062
  5462.294  5462.300  0.500  1.699646  108.612  25.6778  4.692574
  5463.195  5463.200  0.500  1.721276  108.628  25.7133  4.598509
  5464.099  5464.100  0.500  1.820573  108.654  25.7268  4.166019
  5464.994  5465.000  0.500  1.996684  108.682  25.7728  3.499552
  5465.899  5465.900  0.500  1.947844  108.67  25.7848  3.676424
  5466.796  5466.800  0.500  1.952717  108.705  25.835  3.665683
  5467.699  5467.700  0.500  2.003468  108.692  25.8399  3.484936
  5468.599  5468.600  0.500  2.057787  108.7  25.8639  3.303758
  5469.495  5469.500  0.500  2.094729  108.717  25.91  3.189618
  5470.399  5470.400  0.500  2.109600  108.731  25.9332  3.145341
  5471.300  5471.300  0.500  2.115537  108.747  25.9772  3.132033
  5472.200  5472.200  0.500  2.137525  108.764  25.9892  3.065326
  5473.103  5473.100  0.500  2.198106  108.789  26.0417  2.890969
  5474.001  5474.000  0.500  2.271426  108.775  26.0612  2.688604
  5474.904  5474.900  0.500  2.333212  108.823  26.0817  2.529497
  5475.801  5475.800  0.500  2.382513  108.806  26.1278  2.412076
  5476.703  5476.700  0.500  2.428009  108.838  26.1674  2.308287
  5477.601  5477.600  0.500  2.472393  108.849  26.1785  2.209011
  5478.500  5478.500  0.500  2.513007  108.863  26.1971  2.122601
  5479.403  5479.400  0.500  2.551743  108.887  26.2519  2.046225
  5480.298  5480.300  0.500  2.588609  108.885  26.2812  1.974358
  5481.205  5481.200  0.500  2.619521  108.927  26.3238  1.917367
  5482.103  5482.100  0.500  2.648216  108.948  26.3488  1.864897
  5483.002  5483.000  0.500  2.675120  108.959  26.3658  1.816566
  5483.903  5483.900  0.500  2.676595  108.967  26.3984  1.816133
  5484.803  5484.800  0.500  2.646506  109.001  26.4117  1.872553
  5485.701  5485.700  0.500  2.604133  109.032  26.4787  1.958559
  5486.603  5486.600  0.500  2.566543  109.046  26.5063  2.035700
  5487.498  5487.500  0.500  2.543519  109.076  26.5454  2.086183
  5488.403  5488.400  0.500  2.537790  109.11  26.581  2.100986
  5489.304  5489.300  0.500  2.545553  109.135  26.6195  2.087761
  5490.099  5490.100  0.500  2.560537  109.14  26.6374  2.058090
  5493.121  5493.110  0.500  2.604679  109.202  26.7361  1.976515
  5496.298  5496.300  0.500  2.575324  109.255  26.8489  2.043985
  5499.661  5499.660  0.500  2.603808  109.679  27.0583  2.002076
  5503.184  5503.180  0.500  2.627371  109.769  27.2006  1.965737
  5506.884  5506.880  0.500  2.635333  109.82  27.3204  1.958736
  5510.756  5510.750  0.500  2.654787  109.878  27.4548  1.930448
  5514.808  5514.800  0.500  2.635617  109.956  27.6049  1.978571
  5519.019  5519.010  0.500  2.607874  110.021  27.7349  2.043811
  5523.398  5523.390  0.500  2.553988  110.059  27.8961  2.169502
  5527.957  5527.950  0.500  2.514019  110.119  28.0433  2.269888
  5532.689  5532.680  0.500  2.507234  110.159  28.2124  2.299118
  5537.587  5537.580  0.500  2.556327  110.208  28.3487  2.199551
  5542.657  5542.650  0.500  2.561277  110.287  28.5467  2.203978
  5547.897  5547.890  0.500  2.499685  110.328  28.7248  2.358618
  5553.329  5553.310  0.500  2.464318  110.37  28.9021  2.458608
  5558.903  5558.890  0.500  2.542755  110.391  29.0817  2.287261
  5564.662  5564.650  0.500  2.615602  110.452  29.2692  2.140276
  5570.590  5570.580  0.500  2.576838  110.485  29.4705  2.240170
  5576.695  5576.680  0.500  2.484228  110.563  29.6873  2.475619
  5582.962  5582.950  0.500  2.453768  110.603  29.9013  2.570583
  5589.402  5589.390  0.500  2.452998  110.649  30.1166  2.591089
  5595.995  5596.000  0.500  2.424446  110.673  30.3346  2.685433
  5602.800  5602.790  0.500  2.422827  110.684  30.5617  2.709925
  5609.745  5609.750  0.500  2.438226  110.736  30.7961  2.688980
  5616.876  5616.870  0.500  2.450588  110.767  31.0323  2.676313
  5624.189  5624.170  0.500  2.483604  110.787  31.2516  2.607699
  5631.662  5631.650  0.500  2.459906  110.795  31.5025  2.691669
  5639.298  5639.290  0.500  2.408374  110.792  31.7671  2.857815
  5647.104  5647.100  0.500  2.383160  110.803  32.0081  2.953020
  5655.090  5655.090  0.500  2.363837  110.693  32.2184  3.030416
  5663.256  5663.250  0.500  2.345654  110.581  32.4857  3.111633
  5671.575  5671.570  0.500  2.322525  110.462  32.717  3.207113
  5680.083  5680.070  0.500  2.332940  110.277  32.9415  3.195654
  5688.759  5688.750  0.500  2.353956  110.014  33.1293  3.147044
  5697.600  5697.590  0.500  2.364561  109.693  33.3385  3.133502
  5706.606  5706.600  0.500  2.329561  109.365  33.5267  3.263435
  5715.799  5715.790  0.500  2.293657  108.946  33.7088  3.401111
  5725.143  5725.150  0.500  2.278792  108.453  33.8434  3.465831
  5734.694  5734.670  0.500  2.265493  107.853  33.9773  3.526123
  5744.396  5744.370  0.500  2.252937  107.203  34.0912  3.582645
  5754.277  5754.250  0.500  2.236766  106.461  34.1716  3.649636
  5764.294  5764.290  0.500  2.234104  105.674  34.2545  3.668245
  5774.486  5774.500  0.500  2.234803  104.832  34.3059  3.671187
  5784.876  5784.890  0.500  2.227160  103.935  34.3334  3.702317
  5795.441  5795.450  0.500  2.210234  103.026  34.3424  3.766506
  5806.168  5806.180  0.500  2.187750  102.071  34.3882  3.857282
  5817.067  5817.080  0.500  2.170821  101.094  34.389  3.923229
  5828.142  5828.150  0.500  2.158830  100.126  34.3789  3.969396
  5839.377  5839.390  0.500  2.146929  99.4792  34.54  4.035739
  5850.798  5850.810  0.500  2.136567  98.4731  34.5224  4.075700
  5862.384  5862.390  0.500  2.124754  97.2975  34.4698  4.117844
  5874.139  5874.150  0.500  2.119201  88.7514  31.7709  3.816560
  5886.069  5886.080  0.500  2.104478  96.4755  34.8808  4.252292
  5898.173  5898.180  0.500  2.088953  95.3476  34.8384  4.313580
  5910.437  5910.450  0.500  2.075445  93.9279  34.6704  4.351151
  5922.874  5922.890  0.500  2.061515  94.1861  35.1379  4.471685
  5935.505  5935.510  0.500  2.049442  93.2522  35.158  4.528584
  5948.280  5948.290  0.500  2.034937  93.0887  35.4771  4.636460
  5961.236  5961.250  0.500  2.021524  91.5863  35.2583  4.670092
  5974.368  5974.380  0.500  2.010407  90.3782  35.1725  4.710801
  5987.671  5987.680  0.500  1.998924  86.8973  34.18  4.630742
  6001.142  6001.150  0.500  1.985980  88.992  35.4076  4.859546
  6014.786  6014.800  0.500  1.971914  87.5964  35.2191  4.902155
  6028.594  6028.610  0.500  1.958936  86.4061  35.1175  4.951859
  6042.586  6042.600  0.500  1.945967  85.0998  34.9798  4.996823
  6056.749  6056.760  0.500  1.932619  83.6929  34.783  5.035491
  6071.077  6071.090  0.500  1.919596  82.1888  34.5275  5.064018
  6085.575  6085.590  0.500  1.906576  80.6844  34.2748  5.092839
  6100.249  6100.260  0.500  1.894079  79.1547  33.9981  5.115250
  6105.176  6105.190  0.500  1.889740  78.6102  33.8703  5.118180