Folder: webxdiviewer/xdidata/V (part 3)

File: V-VO2.xdi
# XDI/1.0 BlueSky/1.10.0 BMM/2023-1.0-py310-tiled
# Beamline.name: BMM (06BM) -- Beamline for Materials Measurement (NIST)
# Beamline.xray_source: NSLS-II three-pole wiggler
# Beamline.collimation: paraboloid mirror, 5 nm Rh on 30 nm Pt
# Beamline.focusing: not in use
# Beamline.harmonic_rejection: flat mirror, Si stripe, pitch = 7.0 mrad relative to beam
# Beamline.software: Bluesky 1.10.0, Ophyd 1.7.0, DataBroker 2.0.0b13, Python 3.10.8, 2023-1.0-py310-tiled
# Detector.I0: 10 cm N2
# Detector.I1: 25 cm N2
# Detector.I2: 25 cm N2
# Element.symbol: V
# Element.edge: K
# Element.reference: V
# Element.reference_material: V foil
# Facility.name: NSLS-II
# Facility.energy: 3.0
# Facility.current: 399.6
# Facility.mode: top-off
# Facility.GUP: 123456
# Facility.SAF: 301027
# Facility.cycle: 2023-2
# Mono.name: Si(111)
# Mono.d_spacing: 3.13519
# Mono.encoder_resolution: 0.0000050 deg/ct
# Mono.angle_offset: 16.0754 deg
# Mono.scan_mode: pseudo channel cut
# Mono.scan_type: step
# Mono.direction: forward in energy
# Sample.name: VO2
# Sample.prep: Powder in PEG pellet
# Sample.x: 116.329 mm
# Sample.y: 114.126 mm
# Sample.SDD_position: 205.000 mm
# Scan.experimenters: Bruce Ravel
# Scan.edge_energy: 5465.1
# Scan.start_time: 2023-05-06T09:19:26
# Scan.end_time: 2023-05-06T09:26:49
# Scan.transient_id: 74679
# Scan.uid: fc620012-152b-4046-bf73-fb75324b627a
# Scan.plot_hint: ln(I0/It)  --  ln($5/$6)
# Column.1: energy eV
# Column.2: requested_energy eV
# Column.3: measurement_time seconds
# Column.4: xmu
# Column.5: I0 nA
# Column.6: It nA
# Column.7: Ir nA
# ///////////
# Thermo Scientific; Vanadium (IV) oxide (99%); 022957.09; Lot T12H043
# -----------
# energy  requested_energy  measurement_time  xmu  I0  It  Ir
  5265.109  5265.100  0.500  3.653763  98.5609  2.552087  0.394650
  5295.113  5295.100  0.500  3.582366  100.42  2.792666  0.445884
  5325.107  5325.100  0.500  3.511932  102.144  3.047895  0.501770
  5355.092  5355.100  0.500  3.443982  103.743  3.313266  0.562398
  5385.101  5385.100  0.500  3.377771  105.316  3.593743  0.628468
  5415.099  5415.100  0.500  3.312054  106.638  3.886004  0.699030
  5437.095  5437.100  0.500  3.266721  107.463  4.097689  0.751984
  5443.095  5443.100  0.500  3.254553  108.048  4.170462  0.768993
  5449.100  5449.100  0.500  3.242433  108.292  4.230831  0.783576
  5455.095  5455.100  0.500  3.232688  108.507  4.280726  0.794886
  5455.990  5456.000  0.500  3.230654  108.53  4.290388  0.796400
  5456.892  5456.900  0.500  3.229386  108.538  4.296133  0.797529
  5457.791  5457.800  0.500  3.228066  108.574  4.303234  0.798928
  5458.692  5458.700  0.500  3.226723  108.591  4.309703  0.798975
  5459.594  5459.600  0.500  3.226027  108.604  4.313197  0.799072
  5460.493  5460.500  0.500  3.224941  108.635  4.319127  0.797906
  5461.396  5461.400  0.500  3.223870  108.662  4.324809  0.795781
  5462.295  5462.300  0.500  3.223974  108.676  4.324925  0.789576
  5463.197  5463.200  0.500  3.224377  108.716  4.324790  0.772884
  5464.098  5464.100  0.500  3.226654  108.736  4.315729  0.700565
  5464.996  5465.000  0.500  3.231413  108.735  4.295230  0.585343
  5465.896  5465.900  0.500  3.250805  108.765  4.213869  0.602125
  5466.796  5466.800  0.500  3.289330  108.779  4.055140  0.577640
  5467.699  5467.700  0.500  3.370276  108.783  3.739964  0.507327
  5468.600  5468.600  0.500  3.461129  108.806  3.415877  0.439847
  5469.500  5469.500  0.500  3.474117  108.823  3.372350  0.418692
  5470.401  5470.400  0.500  3.427188  108.826  3.534457  0.432134
  5471.300  5471.300  0.500  3.374735  108.848  3.725557  0.452436
  5472.204  5472.200  0.500  3.341245  108.859  3.852841  0.457981
  5473.100  5473.100  0.500  3.321351  108.885  3.931187  0.440471
  5474.003  5474.000  0.500  3.319395  108.903  3.939546  0.410891
  5474.899  5474.900  0.500  3.338849  108.912  3.863947  0.379525
  5475.803  5475.800  0.500  3.384451  108.931  3.692342  0.346054
  5476.702  5476.700  0.500  3.461591  108.959  3.419109  0.307306
  5477.601  5477.600  0.500  3.573750  108.961  3.056408  0.264233
  5478.501  5478.500  0.500  3.696373  108.982  2.704202  0.225633
  5479.400  5479.400  0.500  3.781141  108.968  2.484111  0.200328
  5480.302  5480.300  0.500  3.854364  108.996  2.309312  0.180458
  5481.203  5481.200  0.500  3.929365  109.01  2.142709  0.163105
  5482.097  5482.100  0.500  4.014838  109.019  1.967335  0.146560
  5483.004  5483.000  0.500  4.112761  109.055  1.784422  0.130242
  5483.901  5483.900  0.500  4.201800  109.044  1.632242  0.119464
  5484.800  5484.800  0.500  4.263287  109.064  1.535175  0.115756
  5485.698  5485.700  0.500  4.290200  109.065  1.494433  0.117530
  5486.602  5486.600  0.500  4.292490  109.097  1.491451  0.121315
  5487.503  5487.500  0.500  4.289074  109.097  1.496553  0.124227
  5488.401  5488.400  0.500  4.301707  109.104  1.477862  0.123482
  5489.304  5489.300  0.500  4.329025  109.131  1.438384  0.119535
  5490.104  5490.100  0.500  4.347480  109.138  1.412173  0.115619
  5493.105  5493.110  0.500  4.294275  109.192  1.490089  0.116893
  5496.303  5496.300  0.500  4.174233  109.606  1.686501  0.135219
  5499.661  5499.660  0.500  4.189338  109.657  1.662000  0.130231
  5503.189  5503.180  0.500  4.233862  109.723  1.590573  0.122040
  5506.881  5506.880  0.500  4.196001  109.786  1.652895  0.125673
  5510.754  5510.750  0.500  4.110117  109.899  1.802985  0.134255
  5514.808  5514.800  0.500  4.043165  109.91  1.928030  0.145664
  5519.015  5519.010  0.500  4.039248  109.964  1.936546  0.150132
  5523.399  5523.390  0.500  4.020928  110.009  1.973157  0.160715
  5527.958  5527.950  0.500  3.991063  110.09  2.034463  0.172044
  5532.689  5532.680  0.500  3.998134  110.155  2.021330  0.171966
  5537.587  5537.580  0.500  3.997973  110.213  2.022714  0.164520
  5542.660  5542.650  0.500  4.021275  110.266  1.977078  0.160378
  5547.897  5547.890  0.500  4.032109  110.309  1.956539  0.168030
  5553.319  5553.310  0.500  4.017782  110.352  1.985542  0.176274
  5558.912  5558.890  0.500  4.011751  110.415  1.998699  0.165128
  5564.657  5564.650  0.500  3.992438  110.471  2.038707  0.157264
  5570.591  5570.580  0.500  3.975397  110.478  2.073872  0.165660
  5576.699  5576.680  0.500  3.959719  110.556  2.108135  0.183473
  5582.971  5582.950  0.500  3.941682  110.599  2.147334  0.192507
  5589.396  5589.390  0.500  3.917725  110.637  2.200150  0.197209
  5596.012  5596.000  0.500  3.889998  110.691  2.263111  0.208189
  5602.797  5602.790  0.500  3.873537  110.701  2.300898  0.212023
  5609.761  5609.750  0.500  3.861861  110.723  2.328378  0.211526
  5616.879  5616.870  0.500  3.847259  110.78  2.363848  0.212195
  5624.176  5624.170  0.500  3.840817  110.788  2.379286  0.207322
  5631.653  5631.650  0.500  3.835676  110.771  2.391187  0.213054
  5639.295  5639.290  0.500  3.812095  110.741  2.447572  0.228864
  5647.103  5647.100  0.500  3.788913  110.714  2.504375  0.239544
  5655.096  5655.090  0.500  3.770740  110.633  2.548424  0.248202
  5663.258  5663.250  0.500  3.749141  110.485  2.600586  0.257753
  5671.579  5671.570  0.500  3.730482  110.329  2.645832  0.267897
  5680.079  5680.070  0.500  3.715983  110.146  2.680014  0.268785
  5688.757  5688.750  0.500  3.699829  109.881  2.717112  0.267064
  5697.596  5697.590  0.500  3.678675  109.563  2.767156  0.269322
  5706.608  5706.600  0.500  3.658293  109.196  2.814686  0.282889
  5715.804  5715.790  0.500  3.636817  108.732  2.863564  0.297603
  5725.173  5725.150  0.500  3.614626  108.216  2.913921  0.307068
  5734.689  5734.670  0.500  3.597673  107.675  2.948949  0.314767
  5744.378  5744.370  0.500  3.578655  106.992  2.986499  0.322588
  5754.260  5754.250  0.500  3.558135  106.252  3.027336  0.331836
  5764.278  5764.290  0.500  3.540245  105.475  3.059436  0.336446
  5774.486  5774.500  0.500  3.518975  104.642  3.100520  0.340516
  5784.888  5784.890  0.500  3.495307  103.806  3.149421  0.348562
  5795.437  5795.450  0.500  3.473422  102.903  3.191107  0.359019
  5806.170  5806.180  0.500  3.453709  102  3.226057  0.370614
  5817.066  5817.080  0.500  3.431476  101.038  3.267492  0.381525
  5828.137  5828.150  0.500  3.410242  100.476  3.319037  0.391975
  5839.374  5839.390  0.500  3.388276  99.5328  3.360909  0.401573
  5850.791  5850.810  0.500  3.365105  98.5826  3.406858  0.410856
  5862.380  5862.390  0.500  3.343588  97.4691  3.441636  0.419920
  5874.159  5874.150  0.500  3.324494  89.0995  3.206756  0.393020
  5886.060  5886.080  0.500  3.300380  96.6089  3.561889  0.443159
  5898.167  5898.180  0.500  3.278036  95.5603  3.602835  0.455038
  5910.444  5910.450  0.500  3.256138  94.0958  3.626163  0.464115
  5922.876  5922.890  0.500  3.234510  94.3521  3.715538  0.481998
  5935.490  5935.510  0.500  3.210878  93.4303  3.767220  0.494034
  5948.294  5948.290  0.500  3.187955  93.3105  3.849629  0.511882
  5961.234  5961.250  0.500  3.166211  91.7944  3.870334  0.521556
  5974.367  5974.380  0.500  3.143528  90.5586  3.905824  0.531798
  5987.665  5987.680  0.500  3.121114  87.1509  3.844052  0.528903
  6001.135  6001.150  0.500  3.098542  89.2009  4.024294  0.560922
  6014.786  6014.800  0.500  3.074647  87.8477  4.059088  0.573482
  6028.594  6028.610  0.500  3.051297  86.6903  4.100238  0.586600
  6042.589  6042.600  0.500  3.027192  85.4346  4.139434  0.599875
  6056.743  6056.760  0.500  3.003794  83.9894  4.165755  0.611626
  6071.080  6071.090  0.500  2.980564  82.4969  4.187888  0.622714
  6085.577  6085.590  0.500  2.957410  81.036  4.210086  0.634069
  6100.249  6100.260  0.500  2.934190  79.5318  4.229006  0.644673
  6105.177  6105.190  0.500  2.926576  78.9634  4.230873  0.647915