Folder: webxdiviewer/xdidata/W (part 2)

File: W-L3-TungstenOxide.xdi
# XDI/1.0 BlueSky/1.10.0 BMM/2023-1.0-py310-tiled
# Beamline.name: BMM (06BM) -- Beamline for Materials Measurement (NIST)
# Beamline.xray_source: NSLS-II three-pole wiggler
# Beamline.collimation: paraboloid mirror, 5 nm Rh on 30 nm Pt
# Beamline.focusing: not in use
# Beamline.harmonic_rejection: flat mirror, Pt stripe, pitch = 7.0 mrad relative to beam
# Beamline.software: Bluesky 1.10.0, Ophyd 1.7.0, DataBroker 2.0.0b13, Python 3.10.8, 2023-1.0-py310-tiled
# Detector.I0: 10 cm N2
# Detector.I1: 25 cm N2
# Detector.I2: 25 cm N2
# Element.symbol: W
# Element.edge: L3
# Element.reference: W
# Element.reference_material: WO3
# Facility.name: NSLS-II
# Facility.energy: 3.0
# Facility.current: 399.9
# Facility.mode: top-off
# Facility.GUP: 301027
# Facility.SAF: 310583
# Facility.cycle: 2023-2
# Mono.name: Si(111)
# Mono.d_spacing: 3.13519
# Mono.encoder_resolution: 0.0000050 deg/ct
# Mono.angle_offset: 16.0754 deg
# Mono.scan_mode: pseudo channel cut
# Mono.scan_type: step
# Mono.direction: forward in energy
# Sample.name: WO3
# Sample.prep: PEG pellet
# Sample.x: 109.138 mm
# Sample.y: 153.150 mm
# Sample.SDD_position: 205.000 mm
# Scan.experimenters: Bruce Ravel
# Scan.edge_energy: 10206.8
# Scan.start_time: 2023-05-28T17:40:11
# Scan.end_time: 2023-05-28T17:48:36
# Scan.transient_id: 78882
# Scan.uid: c40f4c59-4dae-4041-9b24-ad9d6c138e51
# Scan.plot_hint: ln(It/Ir)  --  ln($6/$7)
# Column.1: energy eV
# Column.2: requested_energy eV
# Column.3: measurement_time seconds
# Column.4: xmu
# Column.5: I0 nA
# Column.6: It nA
# Column.7: Ir nA
# ///////////
# sample courtesy Martin Stennett, University of Sheffield
# -----------
# energy  requested_energy  measurement_time  xmu  I0  It  Ir
  10006.746  10006.800  0.500  1.242203  97.3769  149.312  43.1134
  10036.891  10036.800  0.500  1.233105  93.9616  144.402  42.0768
  10066.836  10066.800  0.500  1.224053  96.2717  148.252  43.5915
  10096.836  10096.800  0.500  1.215321  95.6707  147.656  43.7969
  10126.859  10126.800  0.500  1.207193  95.1603  147.186  44.0139
  10156.841  10156.800  0.500  1.201657  94.6303  146.638  44.0934
  10178.781  10178.800  0.500  1.205908  94.2255  146.247  43.7893
  10184.777  10184.800  0.500  1.212293  94.099  146.114  43.4711
  10190.780  10190.800  0.500  1.226404  93.9762  145.979  42.8222
  10196.782  10196.800  0.500  1.262042  93.8278  145.784  41.2678
  10197.674  10197.700  0.500  1.271464  93.824  145.803  40.8863
  10198.570  10198.600  0.500  1.282729  93.814  145.827  40.4347
  10199.466  10199.500  0.500  1.296386  93.7952  145.772  39.8713
  10200.358  10200.400  0.500  1.313337  93.7646  145.73  39.1898
  10201.263  10201.300  0.500  1.334692  93.7156  145.67  38.3459
  10202.169  10202.200  0.500  1.361297  93.6929  145.649  37.3339
  10203.084  10203.100  0.500  1.394317  93.6703  145.615  36.113
  10203.990  10204.000  0.500  1.436786  93.6632  145.613  34.6109
  10204.887  10204.900  0.500  1.493487  93.8852  145.98  32.7853
  10205.798  10205.800  0.500  1.567598  93.8704  145.95  30.4371
  10206.687  10206.700  0.500  1.657245  93.8545  145.945  27.8263
  10207.584  10207.600  0.500  1.760294  93.8307  145.911  25.0958
  10208.487  10208.500  0.500  1.863598  93.8166  145.912  22.6329
  10209.394  10209.400  0.500  1.941341  93.7979  145.893  20.9373
  10210.297  10210.300  0.500  1.975440  93.7685  145.866  20.2317
  10211.199  10211.200  0.500  1.982606  93.7379  145.821  20.081
  10212.093  10212.100  0.500  1.984294  93.7382  145.823  20.0474
  10212.988  10213.000  0.500  1.980101  93.7034  145.779  20.1255
  10213.882  10213.900  0.500  1.955352  93.6839  145.762  20.6274
  10214.794  10214.800  0.500  1.905297  93.677  145.766  21.6869
  10215.694  10215.700  0.500  1.844305  93.6443  145.713  23.0424
  10216.606  10216.600  0.500  1.786556  93.626  145.698  24.4097
  10217.497  10217.500  0.500  1.735933  93.6055  145.678  25.6737
  10218.392  10218.400  0.500  1.690990  93.571  145.624  26.8438
  10219.287  10219.300  0.500  1.653573  93.5561  145.612  27.8651
  10220.205  10220.200  0.500  1.625086  93.5392  145.593  28.6665
  10221.105  10221.100  0.500  1.605835  93.5295  145.589  29.223
  10222.001  10222.000  0.500  1.593116  93.4845  145.515  29.5818
  10222.893  10222.900  0.500  1.584755  93.5048  145.544  29.8362
  10223.793  10223.800  0.500  1.579193  93.4446  145.465  29.9863
  10224.698  10224.700  0.500  1.574561  93.4284  145.466  30.1257
  10225.608  10225.600  0.500  1.570991  93.3714  145.387  30.2172
  10226.505  10226.500  0.500  1.568237  93.3437  145.358  30.2943
  10227.411  10227.400  0.500  1.566489  93.3477  145.366  30.3491
  10228.294  10228.300  0.500  1.565400  93.3361  145.358  30.3804
  10229.191  10229.200  0.500  1.564681  93.312  145.334  30.3972
  10230.106  10230.100  0.500  1.563375  93.2922  145.299  30.4298
  10231.004  10231.000  0.500  1.561089  93.2708  145.286  30.4965
  10231.802  10231.800  0.500  1.558295  93.2545  145.261  30.5767
  10234.785  10234.810  0.500  1.548051  93.2451  145.267  30.8928
  10237.962  10238.000  0.500  1.542879  93.1224  145.11  31.0195
  10241.321  10241.360  0.500  1.544003  93.0974  145.108  30.9841
  10244.852  10244.880  0.500  1.543336  93.0237  145.034  30.9891
  10248.557  10248.580  0.500  1.543903  92.9525  144.958  30.9553
  10252.448  10252.450  0.500  1.550564  92.871  144.859  30.7286
  10256.487  10256.500  0.500  1.562756  92.7952  144.768  30.3372
  10260.707  10260.710  0.500  1.574316  92.7143  144.685  29.9714
  10265.073  10265.090  0.500  1.582673  92.6124  144.573  29.6989
  10269.643  10269.650  0.500  1.583534  92.5225  144.472  29.6527
  10274.377  10274.380  0.500  1.575556  92.6765  144.764  29.9506
  10279.276  10279.280  0.500  1.567955  92.6462  144.761  30.1784
  10284.344  10284.350  0.500  1.563102  92.57  144.682  30.3088
  10289.601  10289.590  0.500  1.561161  92.4638  144.575  30.3451
  10294.997  10295.010  0.500  1.561431  92.3559  144.463  30.3134
  10300.582  10300.590  0.500  1.560954  92.2556  144.343  30.3026
  10306.362  10306.350  0.500  1.557021  92.1444  144.225  30.3972
  10312.282  10312.280  0.500  1.552095  92.0282  144.093  30.5195
  10318.375  10318.380  0.500  1.548782  91.9014  143.961  30.5927
  10324.642  10324.650  0.500  1.548491  91.772  143.81  30.5695
  10331.092  10331.090  0.500  1.548845  91.643  143.684  30.5319
  10337.717  10337.700  0.500  1.548086  91.516  143.539  30.5243
  10344.509  10344.490  0.500  1.547826  91.3777  143.389  30.5002
  10351.476  10351.450  0.500  1.548330  91.2387  143.235  30.4521
  10358.593  10358.570  0.500  1.547677  91.1028  143.096  30.4424
  10365.887  10365.870  0.500  1.546843  90.9546  142.927  30.4319
  10373.355  10373.350  0.500  1.546490  90.7763  142.685  30.3912
  10381.011  10380.990  0.500  1.544436  90.6224  142.525  30.4195
  10388.809  10388.800  0.500  1.540548  90.4701  142.362  30.503
  10396.803  10396.790  0.500  1.538075  90.3049  142.191  30.5417
  10404.968  10404.950  0.500  1.535707  90.1518  142.001  30.5734
  10413.282  10413.270  0.500  1.532955  89.9892  141.807  30.6157
  10421.775  10421.770  0.500  1.530105  89.8236  141.622  30.663
  10430.452  10430.450  0.500  1.526871  89.6364  141.432  30.721
  10439.309  10439.290  0.500  1.524055  89.479  141.249  30.7678
  10448.308  10448.300  0.500  1.521201  89.2902  141.031  30.808
  10457.499  10457.490  0.500  1.519430  89.1069  140.825  30.8176
  10466.845  10466.850  0.500  1.519015  88.9192  140.611  30.7835
  10476.392  10476.370  0.500  1.518999  88.7342  140.391  30.736
  10486.082  10486.070  0.500  1.517236  88.5615  140.198  30.7479
  10495.956  10495.950  0.500  1.514180  88.3594  139.965  30.7906
  10506.003  10505.990  0.500  1.511142  88.1613  139.73  30.8325
  10516.223  10516.200  0.500  1.508865  87.953  139.481  30.8477
  10526.588  10526.590  0.500  1.506418  87.5666  138.956  30.8069
  10537.171  10537.150  0.500  1.503314  87.5452  139.012  30.9152
  10547.892  10547.880  0.500  1.499783  87.3366  138.759  30.9681
  10558.803  10558.780  0.500  1.496435  86.9615  138.25  30.9579
  10569.889  10569.850  0.500  1.493279  86.9071  138.279  31.0623
  10581.109  10581.090  0.500  1.490415  86.6848  138.005  31.0897
  10592.534  10592.510  0.500  1.487753  86.4769  137.771  31.1196
  10604.115  10604.090  0.500  1.485035  86.2305  137.461  31.1342
  10615.879  10615.850  0.500  1.482410  86.0111  137.198  31.1563
  10627.807  10627.780  0.500  1.479410  85.7794  136.914  31.1851
  10639.919  10639.880  0.500  1.476296  85.5254  136.606  31.2121
  10652.172  10652.150  0.500  1.473950  85.3067  136.36  31.2289
  10664.626  10664.590  0.500  1.470905  85.0717  136.074  31.2587
  10677.239  10677.210  0.500  1.467398  84.739  135.643  31.2691
  10690.021  10689.990  0.500  1.464058  84.5306  135.424  31.3229
  10702.974  10702.950  0.500  1.460292  84.2828  135.097  31.3653
  10716.112  10716.080  0.500  1.456906  84.0036  134.749  31.3906
  10729.404  10729.380  0.500  1.453489  83.7266  134.4  31.4164
  10742.869  10742.850  0.500  1.450138  83.3889  133.977  31.4228
  10756.519  10756.500  0.500  1.446603  83.1536  133.696  31.4679
  10770.341  10770.310  0.500  1.443159  82.8644  133.315  31.4864
  10784.335  10784.300  0.500  1.439690  82.5335  132.905  31.4987
  10798.497  10798.460  0.500  1.436282  82.4817  132.924  31.6107
  10812.814  10812.790  0.500  1.432786  82.2284  132.615  31.6476
  10827.327  10827.290  0.500  1.429303  81.91  132.186  31.6553
  10841.993  10841.960  0.500  1.425975  81.6494  131.877  31.6866
  10856.821  10856.800  0.500  1.421984  81.3575  131.506  31.7239
  10871.840  10871.820  0.500  1.418447  81.0684  131.142  31.7482
  10887.024  10887.000  0.500  1.414877  80.7629  130.742  31.7645
  10902.401  10902.360  0.500  1.410846  80.4581  130.365  31.8008
  10917.921  10917.890  0.500  1.406956  80.0932  129.866  31.8027
  10933.616  10933.590  0.500  1.403052  79.8398  129.568  31.8538
  10949.496  10949.460  0.500  1.399032  79.5138  129.147  31.8781
  10965.550  10965.510  0.500  1.395001  79.2134  128.767  31.9126
  10981.750  10981.720  0.500  1.391220  78.8728  128.307  31.9192
  10998.136  10998.110  0.500  1.387186  78.5689  127.916  31.9504
  11014.693  11014.670  0.500  1.383192  78.169  127.371  31.9416
  11031.422  11031.400  0.500  1.379171  77.9162  127.07  31.9945
  11048.325  11048.300  0.500  1.375052  77.5657  126.608  32.0098
  11059.684  11059.660  0.500  1.372401  77.3333  126.282  32.0123