Folder: webxdiviewer/xdidata/Y (part 2)

File: Y-K-YttriumOxide.xdi
# XDI/1.0 BlueSky/1.10.0 BMM/2023-1.0-py310-tiled
# Beamline.name: BMM (06BM) -- Beamline for Materials Measurement (NIST)
# Beamline.xray_source: NSLS-II three-pole wiggler
# Beamline.collimation: paraboloid mirror, 5 nm Rh on 30 nm Pt
# Beamline.focusing: not in use
# Beamline.harmonic_rejection: flat mirror, Pt stripe, pitch = 7.0 mrad relative to beam
# Beamline.software: Bluesky 1.10.0, Ophyd 1.7.0, DataBroker 2.0.0b13, Python 3.10.8, 2023-1.0-py310-tiled
# Detector.I0: 10 cm N2
# Detector.I1: 25 cm N2
# Detector.I2: 25 cm N2
# Element.symbol: Y
# Element.edge: K
# Element.reference: Y
# Element.reference_material: Y2O3
# Facility.name: NSLS-II
# Facility.energy: 3.0
# Facility.current: 400.7
# Facility.mode: top-off
# Facility.GUP: 301027
# Facility.SAF: 310583
# Facility.cycle: 2023-2
# Mono.name: Si(111)
# Mono.d_spacing: 3.13519
# Mono.encoder_resolution: 0.0000050 deg/ct
# Mono.angle_offset: 16.0754 deg
# Mono.scan_mode: pseudo channel cut
# Mono.scan_type: step
# Mono.direction: forward in energy
# Sample.name: Y2O3
# Sample.prep: PEG pellet
# Sample.x: 109.138 mm
# Sample.y: 153.150 mm
# Sample.SDD_position: 205.000 mm
# Scan.experimenters: Bruce Ravel
# Scan.edge_energy: 17038.4
# Scan.start_time: 2023-05-28T22:07:49
# Scan.end_time: 2023-05-28T22:15:23
# Scan.transient_id: 79057
# Scan.uid: 97cdf0a0-fd3d-4ca7-806e-3b001e02e95a
# Scan.plot_hint: ln(It/Ir)  --  ln($6/$7)
# Column.1: energy eV
# Column.2: requested_energy eV
# Column.3: measurement_time seconds
# Column.4: xmu
# Column.5: I0 nA
# Column.6: It nA
# Column.7: Ir nA
# ///////////
# sample courtesy Martin Stennett, University of Sheffield
# -----------
# energy  requested_energy  measurement_time  xmu  I0  It  Ir
  16838.342  16838.400  0.500  0.280476  15.8031  29.2885  22.1252
  16868.282  16868.400  0.500  0.279163  17.4799  32.4085  24.5144
  16898.317  16898.400  0.500  0.278192  17.3685  32.2089  24.387
  16928.321  16928.400  0.500  0.277270  17.2127  31.9276  24.1963
  16958.332  16958.400  0.500  0.276803  17.2495  32.0046  24.266
  16988.349  16988.400  0.500  0.277936  17.0517  31.6424  23.9642
  17010.314  17010.400  0.500  0.281393  16.9585  31.4795  23.7586
  17016.278  17016.400  0.500  0.283514  16.9291  31.4278  23.6693
  17022.360  17022.400  0.500  0.287255  16.9016  31.3791  23.5444
  17028.332  17028.400  0.500  0.293755  16.8734  31.3285  23.3541
  17029.221  17029.300  0.500  0.295045  16.8657  31.3128  23.3123
  17030.137  17030.200  0.500  0.296833  16.861  31.3013  23.2621
  17031.001  17031.100  0.500  0.298516  16.8553  31.2981  23.2206
  17031.955  17032.000  0.500  0.300874  16.8503  31.2874  23.158
  17032.820  17032.900  0.500  0.303176  16.8462  31.2757  23.0961
  17033.761  17033.800  0.500  0.306301  16.8414  31.2689  23.0191
  17034.664  17034.700  0.500  0.309519  16.839  31.2595  22.9382
  17035.554  17035.600  0.500  0.313656  16.8301  31.249  22.8359
  17036.458  17036.500  0.500  0.318789  16.8229  31.2367  22.7099
  17037.361  17037.400  0.500  0.325719  16.8213  31.2381  22.5542
  17038.290  17038.300  0.500  0.335221  16.8077  31.2065  22.3182
  17039.181  17039.200  0.500  0.348163  16.8042  31.2034  22.0291
  17040.072  17040.100  0.500  0.366932  16.7972  31.1924  21.6119
  17040.976  17041.000  0.500  0.391440  16.7936  31.1865  21.0847
  17041.918  17041.900  0.500  0.423365  16.7881  31.1759  20.4152
  17042.822  17042.800  0.500  0.456763  16.7858  31.168  19.7396
  17043.700  17043.700  0.500  0.491008  16.7759  31.1538  19.0664
  17044.592  17044.600  0.500  0.526945  16.7716  31.1453  18.3883
  17045.509  17045.500  0.500  0.567318  16.7719  31.1476  17.662
  17046.426  17046.400  0.500  0.613007  16.7614  31.1296  16.8635
  17047.317  17047.300  0.500  0.660603  16.7609  31.1256  16.0776
  17048.209  17048.200  0.500  0.712273  16.7453  31.1011  15.2559
  17049.101  17049.100  0.500  0.762950  16.7429  31.0956  14.4995
  17050.031  17050.000  0.500  0.819009  16.7334  31.0818  13.703
  17050.898  17050.900  0.500  0.877341  16.7299  31.0798  12.9257
  17051.790  17051.800  0.500  0.946525  16.7243  31.068  12.0571
  17052.670  17052.700  0.500  1.020319  16.7127  31.0503  11.193
  17053.600  17053.600  0.500  1.094876  16.7156  31.0534  10.3899
  17054.505  17054.500  0.500  1.156171  16.7052  31.0357  9.766595
  17055.372  17055.400  0.500  1.192358  16.6967  31.0146  9.413082
  17056.265  17056.300  0.500  1.203305  16.6897  31.0086  9.308807
  17057.183  17057.200  0.500  1.196773  16.6868  31.0005  9.367345
  17058.089  17058.100  0.500  1.183971  16.6771  30.9808  9.482013
  17058.982  17059.000  0.500  1.174993  16.6636  30.9625  9.561888
  17059.862  17059.900  0.500  1.172647  16.6616  30.9561  9.582349
  17060.793  17060.800  0.500  1.176282  16.6505  30.9304  9.539657
  17061.712  17061.700  0.500  1.182787  16.695  31.0165  9.504180
  17062.593  17062.600  0.500  1.188580  16.6927  31.01  9.447303
  17063.410  17063.400  0.500  1.193027  16.6856  31.001  9.402650
  17066.435  17066.410  0.500  1.181963  16.6265  30.8906  9.473412
  17069.628  17069.600  0.500  1.106414  16.5231  30.701  10.1541
  17072.962  17072.960  0.500  1.025592  15.8545  29.4546  10.5619
  17076.464  17076.480  0.500  0.961688  14.2525  26.4778  10.1211
  17080.185  17080.180  0.500  0.923208  16.642  30.9212  12.2832
  17084.112  17084.050  0.500  0.919470  16.7223  31.0715  12.3892
  17088.130  17088.100  0.500  0.945932  16.7028  31.0385  12.0528
  17092.317  17092.310  0.500  0.965515  16.6755  30.9881  11.7999
  17096.673  17096.690  0.500  0.975478  16.6499  30.9418  11.6654
  17101.261  17101.250  0.500  1.004317  16.6237  30.8906  11.3151
  17106.019  17105.980  0.500  1.036700  16.5999  30.8505  10.9403
  17110.882  17110.880  0.500  1.060023  16.5795  30.8178  10.6768
  17115.941  17115.950  0.500  1.055877  16.5595  30.7813  10.7084
  17121.221  17121.190  0.500  1.025341  16.5382  30.7423  11.0265
  17126.645  17126.610  0.500  1.002111  16.513  30.6942  11.268
  17132.215  17132.190  0.500  0.980641  16.4818  30.6395  11.492
  17137.969  17137.950  0.500  0.959016  16.4662  30.6061  11.7304
  17143.881  17143.880  0.500  0.955389  16.4317  30.5449  11.7495
  17150.016  17149.980  0.500  0.965543  16.4054  30.495  11.6118
  17156.247  17156.250  0.500  0.974790  16.3827  30.4595  11.4915
  17162.740  17162.690  0.500  0.978122  16.3501  30.4022  11.4317
  17169.341  17169.300  0.500  0.976497  16.3266  30.3573  11.4334
  17176.142  17176.090  0.500  0.975859  16.3003  30.3123  11.4237
  17183.116  17183.050  0.500  0.978057  16.2774  30.2671  11.3817
  17190.186  17190.170  0.500  0.984948  16.2481  30.2128  11.2832
  17197.509  17197.470  0.500  0.990268  16.2161  30.1586  11.2032
  17204.981  17204.950  0.500  0.977926  16.185  30.1012  11.3208
  17212.589  17212.590  0.500  0.951363  16.1481  30.0383  11.6012
  17220.412  17220.400  0.500  0.936190  16.1256  29.9971  11.7625
  17228.412  17228.390  0.500  0.939904  16.0918  29.9363  11.6951
  17236.588  17236.550  0.500  0.958145  16.0417  29.8391  11.4464
  17244.889  17244.870  0.500  0.972641  16.0257  29.8142  11.2723
  17253.368  17253.370  0.500  0.971697  15.9953  29.761  11.2627
  17262.104  17262.050  0.500  0.956500  15.9637  29.7044  11.4135
  17270.901  17270.890  0.500  0.947232  15.9189  29.6257  11.4892
  17279.943  17279.900  0.500  0.949395  15.8829  29.5585  11.4384
  17289.099  17289.090  0.500  0.954932  15.8532  29.5073  11.3555
  17298.448  17298.450  0.500  0.957704  15.8061  29.4232  11.2918
  17307.979  17307.970  0.500  0.954653  15.775  29.3625  11.303
  17317.704  17317.670  0.500  0.946507  15.7075  29.2394  11.3476
  17327.584  17327.550  0.500  0.937927  15.7051  29.239  11.4453
  17337.635  17337.590  0.500  0.930809  15.666  29.1738  11.5013
  17347.829  17347.800  0.500  0.935945  15.6286  29.1004  11.4136
  17358.220  17358.190  0.500  0.943282  15.5842  29.0234  11.3002
  17368.796  17368.750  0.500  0.942563  15.5468  28.9563  11.2822
  17379.490  17379.480  0.500  0.937298  15.5093  28.8848  11.3137
  17390.410  17390.380  0.500  0.935740  15.466  28.8113  11.3025
  17401.423  17401.450  0.500  0.933944  15.4204  28.7244  11.2887
  17412.717  17412.690  0.500  0.927291  15.3586  28.6137  11.3203
  17424.131  17424.110  0.500  0.925109  15.3321  28.5701  11.3277
  17435.721  17435.690  0.500  0.926070  15.2841  28.4773  11.2801
  17447.487  17447.450  0.500  0.926643  15.2474  28.4116  11.2476
  17459.375  17459.380  0.500  0.924646  15.2478  28.4171  11.2723
  17471.494  17471.480  0.500  0.922518  15.2117  28.3513  11.2701
  17483.790  17483.750  0.500  0.917821  15.1522  28.2433  11.2801
  17496.185  17496.190  0.500  0.913789  15.1145  28.1784  11.2996
  17508.906  17508.810  0.500  0.914876  15.0701  28.0953  11.254
  17521.633  17521.590  0.500  0.915886  15.0204  28.0059  11.2069
  17534.594  17534.550  0.500  0.915009  14.9702  27.9182  11.1816
  17547.750  17547.680  0.500  0.911403  14.9223  27.8318  11.1873
  17561.074  17560.980  0.500  0.907939  14.8756  27.7443  11.1908
  17574.501  17574.450  0.500  0.901805  14.8245  27.6511  11.2218
  17588.192  17588.100  0.500  0.899459  14.768  27.5482  11.2063
  17602.040  17601.910  0.500  0.901796  14.7211  27.4648  11.1463
  17616.019  17615.900  0.500  0.902336  14.6682  27.369  11.1014
  17630.184  17630.060  0.500  0.898738  14.6124  27.2633  11.0984
  17644.495  17644.390  0.500  0.894885  14.5654  27.1818  11.108
  17658.966  17658.890  0.500  0.890826  14.5105  27.0841  11.113
  17673.612  17673.560  0.500  0.889068  14.4579  26.9849  11.0918
  17688.433  17688.400  0.500  0.887680  14.3985  26.883  11.0653
  17703.486  17703.420  0.500  0.887790  14.3456  26.7836  11.0232
  17718.605  17718.600  0.500  0.885095  14.288  26.6826  11.0112
  17733.985  17733.960  0.500  0.881879  14.2335  26.583  11.0055
  17749.516  17749.490  0.500  0.878106  14.1762  26.475  11.0022
  17765.227  17765.190  0.500  0.874930  14.1115  26.3674  10.9923
  17781.091  17781.060  0.500  0.874380  14.0606  26.2651  10.9557
  17797.150  17797.110  0.500  0.873472  14.0029  26.1601  10.9218
  17813.363  17813.320  0.500  0.871264  13.944  26.0529  10.9011
  17829.746  17829.710  0.500  0.868392  13.8835  25.9447  10.8871
  17846.285  17846.270  0.500  0.864953  13.8218  25.8372  10.8793
  17863.050  17863.000  0.500  0.862269  13.76  25.7206  10.8593
  17879.931  17879.900  0.500  0.860420  13.697  25.608  10.8318
  17891.325  17891.260  0.500  0.859113  13.5831  25.3962  10.7562