Folder: webxdiviewer/xdidata/Zn (part 5)

File: Zn-ZnO.xdi
# XDI/1.0 BlueSky/1.10.0 BMM/2023-1.0-py310-tiled
# Beamline.name: BMM (06BM) -- Beamline for Materials Measurement (NIST)
# Beamline.xray_source: NSLS-II three-pole wiggler
# Beamline.collimation: paraboloid mirror, 5 nm Rh on 30 nm Pt
# Beamline.focusing: not in use
# Beamline.harmonic_rejection: flat mirror, Pt stripe, pitch = 7.0 mrad relative to beam
# Beamline.software: Bluesky 1.10.0, Ophyd 1.7.0, DataBroker 2.0.0b13, Python 3.10.8, 2023-1.0-py310-tiled
# Detector.I0: 10 cm N2
# Detector.I1: 25 cm N2
# Detector.I2: 25 cm N2
# Element.symbol: Zn
# Element.edge: K
# Element.reference: Zn
# Element.reference_material: Zn foil
# Facility.name: NSLS-II
# Facility.energy: 3.0
# Facility.current: 400.5
# Facility.mode: top-off
# Facility.GUP: 123456
# Facility.SAF: 301027
# Facility.cycle: 2023-2
# Mono.name: Si(111)
# Mono.d_spacing: 3.13519
# Mono.encoder_resolution: 0.0000050 deg/ct
# Mono.angle_offset: 16.0754 deg
# Mono.scan_mode: pseudo channel cut
# Mono.scan_type: step
# Mono.direction: forward in energy
# Sample.name: ZnO
# Sample.prep: powder in PEG pellet
# Sample.x: 116.329 mm
# Sample.y: 114.126 mm
# Sample.SDD_position: 205.000 mm
# Scan.experimenters: Bruce Ravel
# Scan.edge_energy: 9658.6
# Scan.start_time: 2023-05-06T13:22:44
# Scan.end_time: 2023-05-06T13:30:48
# Scan.transient_id: 74820
# Scan.uid: e69f54dd-8baf-4b93-b4c4-774bb4ebc383
# Scan.plot_hint: ln(I0/It)  --  ln($5/$6)
# Column.1: energy eV
# Column.2: requested_energy eV
# Column.3: measurement_time seconds
# Column.4: xmu
# Column.5: I0 nA
# Column.6: It nA
# Column.7: Ir nA
# ///////////
# sample courtesy Martin Stennett, University of Sheffield
# -----------
# energy  requested_energy  measurement_time  xmu  I0  It  Ir
  9458.627  9458.600  0.500  1.792240  104.656  17.4343  9.572479
  9488.629  9488.600  0.500  1.770450  104.187  17.7385  9.797023
  9518.627  9518.600  0.500  1.749130  103.671  18.0311  10.0119
  9548.635  9548.600  0.500  1.729376  103.329  18.33  10.2352
  9578.575  9578.600  0.500  1.712397  103.248  18.6294  10.4547
  9608.597  9608.600  0.500  1.703358  102.718  18.7019  10.5445
  9630.571  9630.600  0.500  1.717021  102.309  18.3748  10.38
  9636.572  9636.600  0.500  1.730776  102.184  18.1016  10.2228
  9642.569  9642.600  0.500  1.756260  102.074  17.6271  9.942835
  9648.585  9648.600  0.500  1.808901  101.741  16.6687  9.366960
  9649.466  9649.500  0.500  1.820700  101.801  16.4829  9.253802
  9650.363  9650.400  0.500  1.834664  101.881  16.2671  9.122467
  9651.276  9651.300  0.500  1.851471  101.891  15.9976  8.959191
  9652.169  9652.200  0.500  1.871202  101.877  15.6828  8.767183
  9653.083  9653.100  0.500  1.894083  101.857  15.3251  8.549579
  9653.993  9654.000  0.500  1.921668  101.834  14.9047  8.290103
  9654.891  9654.900  0.500  1.955292  101.815  14.4092  7.987823
  9655.789  9655.800  0.500  1.997911  101.793  13.8051  7.613871
  9656.691  9656.700  0.500  2.051157  101.767  13.0858  7.168492
  9657.586  9657.600  0.500  2.118459  101.749  12.2319  6.634316
  9658.492  9658.500  0.500  2.213655  101.726  11.1186  5.929468
  9659.391  9659.400  0.500  2.353992  101.704  9.660740  4.981534
  9660.302  9660.300  0.500  2.587924  101.683  7.644108  3.641847
  9661.197  9661.200  0.500  2.981160  101.661  5.157657  2.152224
  9662.100  9662.100  0.500  3.677793  101.896  2.575805  0.936075
  9662.992  9663.000  0.500  4.824484  101.915  0.818448  0.267500
  9663.891  9663.900  0.500  6.564728  101.898  0.143595  0.042106
  9664.795  9664.800  0.500  8.384577  101.874  0.023264  0.004867
  9665.695  9665.700  0.500  9.039232  101.78  0.012077  0.001625
  9666.603  9666.600  0.500  9.111344  101.606  0.011218  0.001461
  9667.504  9667.500  0.500  9.198516  101.65  0.010286  0.001105
  9668.404  9668.400  0.500  9.315267  101.749  0.009161  0.000720
  9669.301  9669.300  0.500  9.382171  101.735  0.008567  0.000528
  9670.193  9670.200  0.500  9.420518  101.716  0.008244  0.000539
  9671.094  9671.100  0.500  9.430053  101.701  0.008164  0.000535
  9672.000  9672.000  0.500  9.422315  101.677  0.008225  0.000563
  9672.905  9672.900  0.500  9.427143  101.655  0.008184  0.000407
  9673.802  9673.800  0.500  9.380648  101.635  0.008572  0.000520
  9674.712  9674.700  0.500  9.316633  101.606  0.009136  0.000741
  9675.594  9675.600  0.500  9.218857  101.578  0.010072  0.000911
  9676.488  9676.500  0.500  9.033505  101.551  0.012119  0.001407
  9677.402  9677.400  0.500  8.852631  101.533  0.014520  0.002113
  9678.304  9678.300  0.500  8.826938  101.51  0.014894  0.002222
  9679.203  9679.200  0.500  8.943925  101.485  0.013247  0.001785
  9680.110  9680.100  0.500  9.136362  101.461  0.010925  0.001180
  9680.996  9681.000  0.500  9.253192  101.437  0.009718  0.000872
  9681.895  9681.900  0.500  9.307953  101.413  0.009198  0.000665
  9682.794  9682.800  0.500  9.301273  101.388  0.009258  0.000843
  9683.601  9683.600  0.500  9.258165  101.368  0.009663  0.000868
  9686.636  9686.610  0.500  9.134488  101.308  0.010929  0.001222
  9689.823  9689.800  0.500  8.915417  101.24  0.013597  0.002006
  9693.167  9693.160  0.500  8.611201  101.173  0.018419  0.003230
  9696.700  9696.680  0.500  8.325248  101.091  0.024497  0.004526
  9700.391  9700.380  0.500  8.295211  101.011  0.025224  0.004659
  9704.271  9704.250  0.500  8.614671  100.919  0.018309  0.003057
  9708.325  9708.300  0.500  8.903626  100.643  0.013677  0.001894
  9712.522  9712.510  0.500  9.128125  100.807  0.010945  0.001194
  9716.898  9716.890  0.500  9.291820  100.692  0.009281  0.000773
  9721.465  9721.450  0.500  9.111787  100.598  0.011102  0.001173
  9726.201  9726.180  0.500  9.054953  100.489  0.011738  0.001373
  9731.101  9731.080  0.500  9.070075  100.39  0.011551  0.001287
  9736.169  9736.150  0.500  9.161720  100.283  0.010528  0.000926
  9741.399  9741.390  0.500  9.219833  100.181  0.009923  0.000835
  9746.811  9746.810  0.500  9.152221  100.059  0.010605  0.001063
  9752.402  9752.390  0.500  9.005388  99.94  0.012267  0.001404
  9758.152  9758.150  0.500  8.827475  99.8094  0.014637  0.002184
  9764.094  9764.080  0.500  8.771290  99.6732  0.015462  0.002367
  9770.209  9770.180  0.500  8.872347  99.4837  0.013949  0.001961
  9776.463  9776.450  0.500  9.007866  99.4111  0.012172  0.001390
  9782.904  9782.890  0.500  9.062429  97.8865  0.011349  0.001153
  9789.511  9789.500  0.500  9.039925  99.072  0.011748  0.001309
  9796.292  9796.290  0.500  9.089916  99.0461  0.011172  0.001224
  9803.275  9803.250  0.500  9.059603  98.4313  0.011445  0.001235
  9810.384  9810.370  0.500  8.951911  99.0227  0.012822  0.001650
  9817.679  9817.670  0.500  8.915471  98.8619  0.013277  0.001792
  9825.143  9825.150  0.500  8.994525  98.6665  0.012243  0.001518
  9832.794  9832.790  0.500  9.034951  98.4908  0.011737  0.001255
  9840.613  9840.600  0.500  9.041415  98.3515  0.011645  0.001264
  9848.612  9848.590  0.500  8.976321  98.1678  0.012405  0.001475
  9856.763  9856.750  0.500  8.906730  97.9967  0.013276  0.001697
  9865.083  9865.070  0.500  8.834227  97.8205  0.014249  0.002194
  9873.587  9873.570  0.500  8.845204  97.6491  0.014068  0.002019
  9882.248  9882.250  0.500  8.896896  95.8714  0.013116  0.001832
  9891.120  9891.090  0.500  8.941947  97.242  0.012718  0.001732
  9900.127  9900.100  0.500  8.942724  97.0418  0.012682  0.001542
  9909.321  9909.290  0.500  8.901862  96.8538  0.013185  0.001682
  9918.668  9918.650  0.500  8.900007  96.6523  0.013182  0.001771
  9928.213  9928.170  0.500  8.852461  96.3743  0.013784  0.001929
  9937.848  9937.870  0.500  8.827597  96.2818  0.014118  0.002011
  9947.751  9947.750  0.500  8.811766  96.0265  0.014305  0.002187
  9957.795  9957.790  0.500  8.796879  95.7886  0.014484  0.002145
  9968.026  9968.000  0.500  8.816837  92.6863  0.013738  0.001981
  9978.421  9978.390  0.500  8.806461  95.4003  0.014287  0.002170
  9988.973  9988.950  0.500  8.757500  95.1481  0.014965  0.002431
  9999.715  9999.680  0.500  8.722979  94.4925  0.015384  0.002537
  10010.607  10010.580  0.500  8.709262  94.7038  0.015631  0.002640
  10021.680  10021.650  0.500  8.708653  94.4865  0.015604  0.002495
  10032.921  10032.890  0.500  8.707673  94.1294  0.015561  0.002446
  10044.324  10044.310  0.500  8.717255  94.0593  0.015401  0.002428
  10055.915  10055.890  0.500  8.692789  93.7852  0.015736  0.002538
  10067.669  10067.650  0.500  8.660231  93.5151  0.016210  0.002789
  10079.605  10079.580  0.500  8.632074  93.2552  0.016627  0.002889
  10091.698  10091.680  0.500  8.602061  92.8633  0.017061  0.003001
  10103.984  10103.950  0.500  8.582698  92.7005  0.017365  0.003103
  10116.411  10116.390  0.500  8.560454  92.4231  0.017702  0.003133
  10129.039  10129.010  0.500  8.558007  92.1451  0.017692  0.003267
  10141.814  10141.790  0.500  8.542913  91.8384  0.017901  0.003354
  10154.765  10154.750  0.500  8.518283  91.5654  0.018293  0.003454
  10167.906  10167.880  0.500  8.496247  91.2842  0.018643  0.003520
  10181.204  10181.180  0.500  8.468807  90.9839  0.019099  0.003742
  10194.676  10194.650  0.500  8.451045  90.4459  0.019326  0.003824
  10208.320  10208.300  0.500  8.442742  90.3534  0.019467  0.003914
  10222.132  10222.110  0.500  8.413137  90.0564  0.019986  0.004338
  10236.119  10236.100  0.500  8.398488  89.7175  0.020205  0.004045
  10250.291  10250.260  0.500  8.367551  89.4359  0.020775  0.004379
  10264.607  10264.590  0.500  8.341129  89.1135  0.021254  0.004459
  10279.111  10279.090  0.500  8.316515  88.8134  0.021710  0.004648
  10293.789  10293.760  0.500  8.300668  88.4681  0.021971  0.004843
  10308.626  10308.600  0.500  8.274014  88.1435  0.022482  0.004963
  10323.640  10323.620  0.500  8.257196  88.1186  0.022857  0.005142
  10338.828  10338.800  0.500  8.238502  87.7787  0.023198  0.005251
  10354.197  10354.160  0.500  8.209807  87.4568  0.023786  0.005480
  10369.719  10369.690  0.500  8.182849  87.0947  0.024335  0.005654
  10385.420  10385.390  0.500  8.157139  86.7388  0.024866  0.005908
  10401.291  10401.260  0.500  8.136444  86.4071  0.025289  0.006000
  10417.339  10417.310  0.500  8.109417  86.0601  0.025878  0.006325
  10433.550  10433.520  0.500  8.090556  85.7168  0.026265  0.006403
  10449.936  10449.910  0.500  8.060917  85.3634  0.026944  0.006826
  10466.493  10466.470  0.500  8.030770  85.0037  0.027652  0.007049
  10483.223  10483.200  0.500  8.002958  84.6501  0.028313  0.007190
  10500.141  10500.100  0.500  7.982460  84.2994  0.028780  0.007544
  10511.484  10511.460  0.500  7.959391  83.9849  0.029341  0.007545