Folder: webxdiviewer/xdidata/Zn (part 2)

File: Zn-K-ZincFoil.xdi
# XDI/1.0 BlueSky/1.10.0 BMM/2023-1.0-py310-tiled
# Beamline.name: BMM (06BM) -- Beamline for Materials Measurement (NIST)
# Beamline.xray_source: NSLS-II three-pole wiggler
# Beamline.collimation: paraboloid mirror, 5 nm Rh on 30 nm Pt
# Beamline.focusing: not in use
# Beamline.harmonic_rejection: flat mirror, Pt stripe, pitch = 7.0 mrad relative to beam
# Beamline.software: Bluesky 1.10.0, Ophyd 1.7.0, DataBroker 2.0.0b13, Python 3.10.8, 2023-1.0-py310-tiled
# Detector.I0: 10 cm N2
# Detector.I1: 25 cm N2
# Detector.I2: 25 cm N2
# Element.symbol: Zn
# Element.edge: K
# Element.reference: Zn
# Element.reference_material: Zn foil
# Facility.name: NSLS-II
# Facility.energy: 3.0
# Facility.current: 399.5
# Facility.mode: top-off
# Facility.GUP: 301027
# Facility.SAF: 310583
# Facility.cycle: 2023-2
# Mono.name: Si(111)
# Mono.d_spacing: 3.13519
# Mono.encoder_resolution: 0.0000050 deg/ct
# Mono.angle_offset: 16.0754 deg
# Mono.scan_mode: pseudo channel cut
# Mono.scan_type: step
# Mono.direction: forward in energy
# Sample.name: Zn foil
# Sample.prep: reference foil
# Sample.x: 109.138 mm
# Sample.y: 153.150 mm
# Sample.SDD_position: 205.000 mm
# Scan.experimenters: Bruce Ravel
# Scan.edge_energy: 9658.6
# Scan.start_time: 2023-05-28T16:55:49
# Scan.end_time: 2023-05-28T17:04:16
# Scan.transient_id: 78854
# Scan.uid: 9b3b008e-5e64-4fbf-a85f-cbcbceb8250a
# Scan.plot_hint: ln(It/Ir)  --  ln($6/$7)
# Column.1: energy eV
# Column.2: requested_energy eV
# Column.3: measurement_time seconds
# Column.4: xmu
# Column.5: I0 nA
# Column.6: It nA
# Column.7: Ir nA
# ///////////
# standard reference foil
# -----------
# energy  requested_energy  measurement_time  xmu  I0  It  Ir
  9458.577  9458.600  0.500  0.717076  108.018  158.326  77.2912
  9488.637  9488.600  0.500  0.710404  107.502  158  77.6486
  9518.678  9518.600  0.500  0.703814  106.97  157.658  77.9924
  9548.635  9548.600  0.500  0.697425  106.815  157.838  78.5821
  9578.627  9578.600  0.500  0.691256  106.314  157.494  78.8963
  9608.637  9608.600  0.500  0.685776  105.737  157.068  79.1152
  9630.571  9630.600  0.500  0.683365  105.321  156.763  79.1518
  9636.568  9636.600  0.500  0.683312  105.166  156.593  79.0704
  9642.589  9642.600  0.500  0.684239  105.108  156.601  79.0013
  9648.581  9648.600  0.500  0.687170  104.904  156.35  78.6435
  9649.466  9649.500  0.500  0.687893  104.738  156.103  78.4628
  9650.363  9650.400  0.500  0.688845  104.744  156.156  78.4145
  9651.260  9651.300  0.500  0.689973  104.851  156.301  78.399
  9652.173  9652.200  0.500  0.691389  104.853  156.332  78.3033
  9653.075  9653.100  0.500  0.692986  104.844  156.333  78.1791
  9653.985  9654.000  0.500  0.695063  104.834  156.347  78.0241
  9654.887  9654.900  0.500  0.697716  104.81  156.311  77.7993
  9655.797  9655.800  0.500  0.701134  104.767  156.249  77.5031
  9656.687  9656.700  0.500  0.705733  104.781  156.285  77.1654
  9657.594  9657.600  0.500  0.711982  104.755  156.258  76.6714
  9658.480  9658.500  0.500  0.721171  104.714  156.216  75.9496
  9659.379  9659.400  0.500  0.736886  104.709  156.216  74.7651
  9660.294  9660.300  0.500  0.768381  104.675  156.179  72.4303
  9661.201  9661.200  0.500  0.840082  104.66  156.176  67.4175
  9662.104  9662.100  0.500  0.979700  104.613  156.121  58.6115
  9663.004  9663.000  0.500  1.136122  104.609  156.124  50.1253
  9663.895  9663.900  0.500  1.253421  104.589  156.107  44.5726
  9664.795  9664.800  0.500  1.336721  104.562  156.069  41.0003
  9665.707  9665.700  0.500  1.390607  104.522  156.036  38.8411
  9666.603  9666.600  0.500  1.427341  104.461  155.928  37.4144
  9667.508  9667.500  0.500  1.467439  104.257  155.664  35.8829
  9668.400  9668.400  0.500  1.516016  104.279  155.711  34.1917
  9669.284  9669.300  0.500  1.562247  104.392  155.878  32.682
  9670.201  9670.200  0.500  1.603313  104.412  155.906  31.3727
  9671.106  9671.100  0.500  1.635622  104.401  155.929  30.3798
  9672.008  9672.000  0.500  1.650939  104.384  155.894  29.9113
  9672.901  9672.900  0.500  1.637424  104.345  155.845  30.3088
  9673.802  9673.800  0.500  1.596623  104.324  155.846  31.5712
  9674.696  9674.700  0.500  1.546076  104.285  155.789  33.196
  9675.598  9675.600  0.500  1.506072  104.272  155.777  34.5481
  9676.508  9676.500  0.500  1.482750  104.248  155.779  35.3637
  9677.394  9677.400  0.500  1.470853  104.23  155.757  35.7819
  9678.296  9678.300  0.500  1.465419  104.209  155.737  35.9723
  9679.187  9679.200  0.500  1.464100  104.193  155.731  36.0183
  9680.093  9680.100  0.500  1.461894  104.177  155.703  36.0916
  9681.000  9681.000  0.500  1.454123  104.139  155.657  36.3622
  9681.903  9681.900  0.500  1.441095  104.122  155.661  36.8401
  9682.815  9682.800  0.500  1.424064  104.08  155.62  37.463
  9683.621  9683.600  0.500  1.410008  104.334  155.95  38.0738
  9686.600  9686.610  0.500  1.390221  104.26  155.905  38.8234
  9689.771  9689.800  0.500  1.402835  104.191  155.87  38.3282
  9693.147  9693.160  0.500  1.437778  104.105  155.748  36.9831
  9696.664  9696.680  0.500  1.475713  104.053  155.706  35.5968
  9700.374  9700.380  0.500  1.494202  103.992  155.696  34.9424
  9704.230  9704.250  0.500  1.481667  103.908  155.629  35.368
  9708.297  9708.300  0.500  1.455575  103.778  155.464  36.2644
  9712.506  9712.510  0.500  1.451055  103.823  155.584  36.4569
  9716.894  9716.890  0.500  1.464548  103.723  155.497  35.9481
  9721.429  9721.450  0.500  1.461447  103.636  155.436  36.0458
  9726.176  9726.180  0.500  1.458582  103.589  155.414  36.1439
  9731.076  9731.080  0.500  1.465282  103.494  155.346  35.8869
  9736.145  9736.150  0.500  1.482511  103.419  155.288  35.2608
  9741.399  9741.390  0.500  1.490695  103.321  155.191  34.9515
  9746.807  9746.810  0.500  1.470074  103.214  155.085  35.6555
  9752.373  9752.390  0.500  1.444117  103.143  155.082  36.5922
  9758.144  9758.150  0.500  1.430333  103.007  154.937  37.0654
  9764.078  9764.080  0.500  1.421339  102.899  154.843  37.3777
  9770.188  9770.180  0.500  1.432382  102.758  154.706  36.9344
  9776.463  9776.450  0.500  1.449494  102.684  154.672  36.2997
  9782.896  9782.890  0.500  1.467640  102.363  154.285  35.5578
  9789.506  9789.500  0.500  1.465851  102.411  154.423  35.6533
  9796.305  9796.290  0.500  1.458588  102.386  154.473  35.925
  9803.262  9803.250  0.500  1.447709  100.663  151.967  35.7286
  9810.388  9810.370  0.500  1.431560  102.087  154.223  36.8493
  9817.674  9817.670  0.500  1.413036  101.939  154.082  37.5039
  9825.164  9825.150  0.500  1.408539  101.756  153.889  37.6259
  9832.782  9832.790  0.500  1.422403  101.628  153.778  37.0811
  9840.609  9840.600  0.500  1.425053  101.47  153.638  36.9493
  9848.608  9848.590  0.500  1.425712  101.316  153.488  36.889
  9856.763  9856.750  0.500  1.427899  101.158  153.378  36.782
  9865.079  9865.070  0.500  1.426610  101.002  153.204  36.7875
  9873.587  9873.570  0.500  1.417916  100.837  153.067  37.0757
  9882.270  9882.250  0.500  1.401714  98.5083  149.646  36.839
  9891.095  9891.090  0.500  1.388752  100.441  152.673  38.0747
  9900.115  9900.100  0.500  1.386059  100.27  152.527  38.1408
  9909.296  9909.290  0.500  1.388999  100.093  152.361  37.9873
  9918.673  9918.650  0.500  1.389137  99.9016  152.175  37.9357
  9928.174  9928.170  0.500  1.387468  99.6615  151.923  37.9362
  9937.887  9937.870  0.500  1.384943  99.5727  151.906  38.0277
  9947.768  9947.750  0.500  1.380450  99.3218  151.622  38.1277
  9957.799  9957.790  0.500  1.373451  99.0643  151.359  38.329
  9968.018  9968.000  0.500  1.362881  97.8799  149.648  38.2982
  9978.413  9978.390  0.500  1.355723  98.7362  151.078  38.9421
  9988.964  9988.950  0.500  1.351512  98.4686  150.778  39.0287
  9999.698  9999.680  0.500  1.348162  95.3742  146.172  37.9634
  10010.599  10010.580  0.500  1.345381  98.0796  150.44  39.1807
  10021.671  10021.650  0.500  1.342512  98.1195  150.607  39.3369
  10032.904  10032.890  0.500  1.339000  97.843  150.316  39.3991
  10044.333  10044.310  0.500  1.333607  97.7504  150.29  39.6052
  10055.911  10055.890  0.500  1.326011  97.4839  150.017  39.8348
  10067.660  10067.650  0.500  1.319295  97.2392  149.761  40.0347
  10079.597  10079.580  0.500  1.313962  96.9772  149.47  40.1704
  10091.689  10091.680  0.500  1.308602  96.5009  148.841  40.2163
  10103.984  10103.950  0.500  1.303842  96.4395  148.901  40.4248
  10116.411  10116.390  0.500  1.299771  96.182  148.624  40.514
  10129.025  10129.010  0.500  1.295625  95.9159  148.348  40.6069
  10141.814  10141.790  0.500  1.290929  95.6308  148.035  40.7119
  10154.787  10154.750  0.500  1.285208  95.3567  147.747  40.8658
  10167.906  10167.880  0.500  1.279094  95.0366  147.37  41.0116
  10181.235  10181.180  0.500  1.273427  94.7804  147.134  41.1784
  10194.676  10194.650  0.500  1.267838  94.3085  146.528  41.2386
  10208.324  10208.300  0.500  1.262531  94.1744  146.451  41.4365
  10222.141  10222.110  0.500  1.257418  93.8869  146.136  41.5593
  10236.110  10236.100  0.500  1.252579  93.5742  145.802  41.6653
  10250.286  10250.260  0.500  1.247578  93.2914  145.461  41.7764
  10264.621  10264.590  0.500  1.242386  92.9822  145.142  41.9017
  10279.120  10279.090  0.500  1.236798  92.6645  144.786  42.0332
  10293.799  10293.760  0.500  1.231234  92.3581  144.461  42.1729
  10308.631  10308.600  0.500  1.225638  92.0539  144.128  42.3117
  10323.645  10323.620  0.500  1.220200  91.5198  143.421  42.3338
  10338.824  10338.800  0.500  1.214737  91.3979  143.346  42.5433
  10354.192  10354.160  0.500  1.209379  91.0722  142.987  42.6647
  10369.705  10369.690  0.500  1.204297  90.7078  142.548  42.7507
  10385.416  10385.390  0.500  1.198883  90.3645  142.152  42.8633
  10401.291  10401.260  0.500  1.193470  90.0339  141.756  42.9757
  10417.348  10417.310  0.500  1.188149  89.6971  141.385  43.0922
  10433.550  10433.520  0.500  1.182529  89.3597  140.994  43.215
  10449.941  10449.910  0.500  1.176972  89.0197  140.578  43.3276
  10466.498  10466.470  0.500  1.171420  88.6722  140.178  43.445
  10483.237  10483.200  0.500  1.166021  88.3095  139.756  43.5486
  10500.127  10500.100  0.500  1.160655  87.9665  139.361  43.6592
  10511.479  10511.460  0.500  1.156973  87.6499  138.957  43.693

File: Zn-Petedunnite.xdi
# XDI/1.0 BlueSky/1.10.0 BMM/2023-1.0-py310-tiled
# Beamline.name: BMM (06BM) -- Beamline for Materials Measurement (NIST)
# Beamline.xray_source: NSLS-II three-pole wiggler
# Beamline.collimation: paraboloid mirror, 5 nm Rh on 30 nm Pt
# Beamline.focusing: not in use
# Beamline.harmonic_rejection: flat mirror, Pt stripe, pitch = 7.0 mrad relative to beam
# Beamline.software: Bluesky 1.10.0, Ophyd 1.7.0, DataBroker 2.0.0b13, Python 3.10.8, 2023-1.0-py310-tiled
# Detector.I0: 10 cm N2
# Detector.I1: 25 cm N2
# Detector.I2: 25 cm N2
# Detector.fluorescence: SII Vortex ME4 (4-element silicon drift)
# Detector.deadtime_correction: Xspress3
# Element.symbol: Zn
# Element.edge: K
# Element.reference: Zn
# Element.reference_material: Zn foil
# Facility.name: NSLS-II
# Facility.energy: 3.0
# Facility.current: 400.5
# Facility.mode: top-off
# Facility.GUP: 123456
# Facility.SAF: 301027
# Facility.cycle: 2023-2
# Mono.name: Si(111)
# Mono.d_spacing: 3.13519
# Mono.encoder_resolution: 0.0000050 deg/ct
# Mono.angle_offset: 16.0754 deg
# Mono.scan_mode: pseudo channel cut
# Mono.scan_type: step
# Mono.direction: forward in energy
# Sample.name: Ca(Zn,Mn,Fe,Mg)Si2O6
# Sample.prep: powder in PEG pellet
# Sample.x: 116.329 mm
# Sample.y: 114.126 mm
# Sample.SDD_position: 35.000 mm
# Scan.experimenters: Bruce Ravel
# Scan.edge_energy: 9658.6
# Scan.start_time: 2023-05-07T12:03:03
# Scan.end_time: 2023-05-07T12:20:50
# Scan.transient_id: 74875
# Scan.uid: 23087f9d-cb0f-417d-9302-aed8d91d8d55
# Scan.plot_hint: (Zn1+Zn2+Zn3+Zn4)/I0  --  ($8+$9+$10+$11)/$5
# Column.1: energy eV
# Column.2: requested_energy eV
# Column.3: measurement_time seconds
# Column.4: xmu
# Column.5: I0 nA
# Column.6: It nA
# Column.7: Ir nA
# Column.8: Zn1
# Column.9: Zn2
# Column.10: Zn3
# Column.11: Zn4
# ///////////
# sample courtesy Martin Stennett, University of Sheffield
# -----------
# energy  requested_energy  measurement_time  xmu  I0  It  Ir  Zn1  Zn2  Zn3  Zn4
  9458.573  9458.600  2.000  46.7399  417.01  421.004  232.802  6620.54  6309.21  2839.9  3721.35
  9498.628  9498.600  2.000  44.2982  414.338  421.718  234.907  6016.61  6305.26  2741.78  3290.76
  9538.611  9538.600  2.000  39.4147  411.583  422.374  236.949  5287.57  5430.03  2409.33  3095.51
  9578.611  9578.600  2.000  34.0012  408.728  422.797  238.782  4697.84  4454.63  2059.87  2684.93
  9618.600  9618.600  2.000  32.1412  405.565  422.788  240.075  4292.57  4302.42  1988.77  2451.6
  9634.579  9634.600  2.000  32.8799  404.539  423.066  240.331  4276.93  4212.31  2136.01  2675.94
  9642.597  9642.600  2.000  32.0898  404.73  423.862  240.416  4244.83  4048.07  2084.93  2609.85
  9648.874  9648.900  2.000  34.4776  403.296  422.9  238.913  4488.86  4145.22  2325.26  2945.35
  9650.073  9650.100  2.000  34.76  403.738  423.441  238.893  4470.85  4217.34  2374.35  2971.39
  9651.280  9651.300  2.000  34.9078  403.768  423.593  238.544  4496.48  4196.33  2392.37  3009.46
  9652.503  9652.500  2.000  36.5473  403.627  423.525  237.926  4723.7  4531.83  2456.46  3039.5
  9653.707  9653.700  2.000  37.8927  403.406  423.415  237.108  4823.68  4674.04  2563.62  3224.78
  9654.899  9654.900  2.000  39.4232  403.267  423.318  236.009  4782.63  4891.4  2834  3390.04
  9656.107  9656.100  2.000  40.4026  403.072  423.235  234.375  5041.53  4825.28  2823.99  3594.32
  9657.303  9657.300  2.000  41.9854  402.824  423.059  231.859  5239.48  4845.31  3040.3  3787.62
  9658.492  9658.500  2.000  45.1924  402.604  423.031  227.423  5623.08  5038.62  3439.86  4093.09
  9659.693  9659.700  2.000  50.8622  402.417  422.893  216.351  6043.49  5729.68  4127.85  4566.8
  9660.915  9660.900  2.000  59.174  402.253  422.806  186.613  6941.86  6587.01  4791.83  5482.18
  9662.104  9662.100  2.000  78.4187  402.057  422.815  151.92  8603.65  8281.67  6968.97  7674.52
  9663.298  9663.300  2.000  121.948  401.903  422.781  131.156  12794.4  12462.4  11422.7  12331.9
  9664.505  9664.500  2.000  207.409  402.488  423.369  119.91  21084.8  20368.8  20237.6  21788.5
  9665.699  9665.700  2.000  339.157  402.138  422.918  113.888  33776.1  32887.4  33942.2  35782.5
  9666.902  9666.900  2.000  471.33  401.174  421.833  107.481  46090  45425.9  47837.9  49731.5
  9668.105  9668.100  2.000  518.226  401.685  422.435  100.787  50090.2  50378  53111.1  54584.4
  9669.313  9669.300  2.000  515.803  401.603  422.46  95.3161  50229  49651.7  53474.6  53793.1
  9670.509  9670.500  2.000  545.26  401.44  422.304  91.652  52899.4  52095.9  55811  58083
  9671.696  9671.700  2.000  525.581  401.254  422.268  91.4953  51008  50502.7  53962.2  55418.4
  9672.893  9672.900  2.000  483.034  401.05  422.202  96.3524  46608.2  46865.7  49506.3  50740.6
  9674.106  9674.100  2.000  452.511  400.943  422.244  102.766  44129.2  43502.3  46128  47671.6
  9675.299  9675.300  2.000  443.749  400.745  422.113  106.989  43010.5  43039  45348.8  46431.9
  9676.496  9676.500  2.000  413.2  400.55  422.017  108.924  39893.8  40629  42265  42719.6
  9677.693  9677.700  2.000  355.297  400.36  422.036  109.551  35276.3  33977.6  35318.8  37674.1
  9678.887  9678.900  2.000  332.625  400.158  421.931  109.697  33054.1  32010.8  33450.1  34587.3
  9680.093  9680.100  2.000  309.28  400.037  421.886  110.691  31508.1  29400.1  30277.7  32537.6
  9681.300  9681.300  2.000  302.351  399.874  421.856  112.836  30529.2  28887.1  29607.7  31878.4
  9682.507  9682.500  2.000  306.809  399.681  421.712  115.255  30553.7  29518.3  30386.8  32167
  9683.592  9683.600  2.000  313.895  401.03  423.335  117.369  31034  30492.1  31314.6  33040.6
  9687.678  9687.660  2.000  338.605  400.669  423.146  117.722  32750.1  33019.7  34458.8  35439.9
  9692.035  9692.020  2.000  300.156  400.154  423.055  113.014  29204.9  29327.7  30399.7  31176.1
  9696.688  9696.680  2.000  275.802  399.866  423.161  107.786  27105.6  26714.2  27932.5  28531.5
  9701.672  9701.650  2.000  296.633  399.401  423.012  106.784  29586.7  28442.5  29504.5  30941.8
  9706.949  9706.930  2.000  337.793  398.766  422.733  110.409  33066.1  32735.2  34083.3  34815.9
  9712.518  9712.510  2.000  366.191  398.621  422.949  110.843  35266.9  35687  37150  37867.8
  9718.391  9718.390  2.000  363.14  398.048  422.817  109.617  34872.8  35134.1  36992.9  37547.2
  9724.582  9724.580  2.000  368.031  397.506  422.715  110.202  35621.3  35327.4  37183.2  38162.3
  9731.096  9731.080  2.000  353.665  397.002  422.718  109.17  34874.5  33510.3  35354.1  36666.7
  9737.890  9737.880  2.000  352.627  396.433  422.677  106.794  33926.5  34029.9  35501  36335.8
  9744.985  9744.980  2.000  341.837  395.878  422.663  108.331  32623.1  33111.4  34538.4  35052.8
  9752.410  9752.390  2.000  329.18  395.257  422.555  111.984  31656.9  31488.3  33024.9  33940.5
  9760.132  9760.110  2.000  338.917  394.593  422.423  113.857  32261.9  32490.2  34124.8  34857.4
  9768.134  9768.120  2.000  339.656  393.814  422.231  113.179  32298.2  32738.7  34298  34426.7
  9776.471  9776.450  2.000  341.997  394.573  423.73  110.962  32517.2  32546.5  34287.3  35591.8
  9785.101  9785.080  2.000  350.341  393.967  423.702  109.078  33495.7  33171.9  35117.9  36237.2
  9794.028  9794.010  2.000  357.839  393.499  423.879  110.108  33842.1  34356  36076.5  36534.6
[...]
  9900.115  9900.100  2.000  342.035  384.38  421.913  117.551  31494.7  31836.8  33552.4  34587.6
  9912.405  9912.390  2.000  347.858  383.382  421.691  117.047  31425  32561.2  34334.9  35041.5
  9924.995  9924.980  2.000  346.667  382.271  421.387  117.127  31170.7  32120.6  34500.3  34729
  9937.887  9937.870  2.000  347.086  382.66  422.819  117.864  31268.8  32480.3  34294  34773.3
  9951.100  9951.070  2.000  342.29  380.795  421.634  118.278  31164.5  31478.6  33472.8  34226.3
  9964.593  9964.580  2.000  341.788  379.794  421.52  119.683  30763.7  31331.4  33829.3  33884.7
  9978.417  9978.390  2.000  343.465  379.3  421.949  120.963  31021.6  31429.6  33909.4  33915.8
  9992.531  9992.500  2.000  342.249  377.883  421.323  121.404  30724.4  31469.7  33628.9  33507.1
  10006.941  10006.920  2.000  340.917  377.091  421.508  121.839  30530  31330.9  33071.5  33624.6
  10021.680  10021.650  2.000  339.487  375.761  420.997  122.1  29860.8  30998.2  33484  33223
  10036.703  10036.680  2.000  342.604  370.843  416.491  121.37  29903.1  30914.2  32858.2  33377
  10052.013  10052.010  2.000  334.759  373.349  420.421  123.576  29614.9  30164.7  32225.9  32976.5
  10067.665  10067.650  2.000  341.218  372.013  419.96  124.52  30029  31009.2  32987.1  32912.3
  10083.599  10083.590  2.000  341.87  370.607  419.421  125.177  29810.2  30908.2  32929.2  33051.8
  10099.841  10099.840  2.000  339.71  369.016  418.805  125.775  29412.4  30520.4  32753.8  32671.9
  10116.389  10116.390  2.000  339.048  367.629  418.348  126.273  29266.4  30399.3  32461.3  32516.8
  10133.246  10133.250  2.000  338.272  366.049  417.57  126.693  28937.8  30340.2  32060.6  32485.7
  10150.405  10150.410  2.000  338.555  364.555  416.99  127.342  28941.3  30252  32089.6  32139.1
  10167.888  10167.880  2.000  338.276  363.919  417.404  128.441  28805.3  30144.9  32282.2  31872.7
  10185.648  10185.650  2.000  338.862  362.333  416.737  129.138  28825.3  29759.5  32243.2  31953
  10203.738  10203.730  2.000  339.754  360.624  415.931  129.749  28912.5  29950.8  31912.6  31747.6
  10222.119  10222.110  2.000  339.054  358.967  415.205  130.348  28403.8  29781.4  31565  31958.9
  10240.804  10240.800  2.000  338.053  357.428  414.631  130.944  28321.1  29495.1  31465  31548.4
  10259.782  10259.790  2.000  335.403  355.71  413.762  131.487  28305.5  28657.5  30959  31384.1
  10279.097  10279.090  2.000  338.573  354.018  413.025  132.15  28071.6  29016.1  31416.6  31356.9
  10298.693  10298.690  2.000  339.097  352.311  412.189  132.796  27910.7  29363.7  31188.2  31005.3
  10318.597  10318.590  2.000  338.291  350.445  411.218  133.386  27833.8  28482.1  31138.1  31098.4
  10338.805  10338.800  2.000  336.117  348.743  410.442  134.024  27497.1  28639.5  30285.9  30796
  10359.332  10359.320  2.000  339.562  346.923  409.528  134.593  27241  29026.2  31181.4  30353.2
  10380.156  10380.140  2.000  339.179  344.996  408.441  135.104  27148.8  28692.7  30474.2  30699.9
  10401.277  10401.260  2.000  338.8  343.084  407.416  135.659  27119.5  28450.2  30454.2  30213
  10422.693  10422.690  2.000  338.988  341.189  406.407  136.241  27057.7  28147.6  30125.5  30328.1
  10444.431  10444.430  2.000  337.85  339.283  405.351  136.813  26567.3  27989.5  30221.7  29848.3
  10466.479  10466.470  2.000  337.152  338.666  405.874  137.913  26435.6  27837.3  30128.7  29780.3
  10488.813  10488.810  2.000  337.711  336.717  404.795  138.468  26107.7  27728.2  30057.6  29819.5
  10511.474  10511.460  2.000  337.474  334.421  403.284  138.874  25988.6  27775.2  29742  29352.6