Folder: webxdiviewer/xdidata/Zn

Note: xdidata/README.md
# bmm-standards
A pretty webpage for BMM's collection of common XAFS materials

[BMM's common materials collection](./BMM-standards.html)

Plotting of the data will happen soon.

Periodic table adapted from [some guy named Daniel](https://codepen.io/gooseofmusic/pen/PjKdNQ)

[This](https://www.coderstool.com/scss-to-css) is a helpful tool for
dealing with Sassy CSS.

File: Zn-Hardystonite.xdi
# XDI/1.0 BlueSky/1.10.0 BMM/2023-1.0-py310-tiled
# Beamline.name: BMM (06BM) -- Beamline for Materials Measurement (NIST)
# Beamline.xray_source: NSLS-II three-pole wiggler
# Beamline.collimation: paraboloid mirror, 5 nm Rh on 30 nm Pt
# Beamline.focusing: not in use
# Beamline.harmonic_rejection: flat mirror, Pt stripe, pitch = 7.0 mrad relative to beam
# Beamline.software: Bluesky 1.10.0, Ophyd 1.7.0, DataBroker 2.0.0b13, Python 3.10.8, 2023-1.0-py310-tiled
# Detector.I0: 10 cm N2
# Detector.I1: 25 cm N2
# Detector.I2: 25 cm N2
# Element.symbol: Zn
# Element.edge: K
# Element.reference: Zn
# Element.reference_material: Zn foil
# Facility.name: NSLS-II
# Facility.energy: 3.0
# Facility.current: 399.6
# Facility.mode: top-off
# Facility.GUP: 123456
# Facility.SAF: 301027
# Facility.cycle: 2023-2
# Mono.name: Si(111)
# Mono.d_spacing: 3.13519
# Mono.encoder_resolution: 0.0000050 deg/ct
# Mono.angle_offset: 16.0754 deg
# Mono.scan_mode: pseudo channel cut
# Mono.scan_type: step
# Mono.direction: forward in energy
# Sample.name: Ca2ZnSi2O7
# Sample.prep: powder in PEG pellet
# Sample.x: 116.329 mm
# Sample.y: 114.126 mm
# Sample.SDD_position: 205.000 mm
# Scan.experimenters: Bruce Ravel
# Scan.edge_energy: 9658.6
# Scan.start_time: 2023-05-07T08:56:59
# Scan.end_time: 2023-05-07T09:04:58
# Scan.transient_id: 74855
# Scan.uid: d0290c1c-37f2-4468-8cdf-c84750309cd9
# Scan.plot_hint: ln(I0/It)  --  ln($5/$6)
# Column.1: energy eV
# Column.2: requested_energy eV
# Column.3: measurement_time seconds
# Column.4: xmu
# Column.5: I0 nA
# Column.6: It nA
# Column.7: Ir nA
# ///////////
# sample courtesy Martin Stennett, University of Sheffield
# -----------
# energy  requested_energy  measurement_time  xmu  I0  It  Ir
  9458.619  9458.600  0.500  1.615234  85.2571  16.9529  9.366253
  9488.633  9488.600  0.500  1.595531  84.2146  17.0788  9.487858
  9518.631  9518.600  0.500  1.576157  83.4651  17.2579  9.638505
  9548.635  9548.600  0.500  1.557073  82.5891  17.4058  9.773113
  9578.659  9578.600  0.500  1.538357  81.7424  17.5528  9.903949
  9608.621  9608.600  0.500  1.521294  80.8815  17.6669  10.014
  9630.599  9630.600  0.500  1.511002  80.3291  17.7277  10.0621
  9636.588  9636.600  0.500  1.509574  80.1436  17.7121  10.0504
  9642.581  9642.600  0.500  1.509212  80.0304  17.6934  10.0257
  9648.585  9648.600  0.500  1.512234  79.6616  17.5588  9.914675
  9649.470  9649.500  0.500  1.513120  79.6271  17.5356  9.891912
  9650.367  9650.400  0.500  1.514154  79.709  17.5355  9.878974
  9651.276  9651.300  0.500  1.515783  79.7474  17.5154  9.855628
  9652.173  9652.200  0.500  1.517260  79.723  17.4842  9.820146
  9653.075  9653.100  0.500  1.519551  79.7177  17.443  9.776906
  9653.973  9654.000  0.500  1.521814  79.6365  17.3859  9.719273
  9654.891  9654.900  0.500  1.525024  79.5914  17.3204  9.649029
  9655.785  9655.800  0.500  1.529078  79.5332  17.2377  9.557716
  9656.683  9656.700  0.500  1.534137  79.5706  17.1588  9.453088
  9657.598  9657.600  0.500  1.540656  79.5133  17.035  9.297789
  9658.496  9658.500  0.500  1.549268  79.4684  16.8794  9.073349
  9659.391  9659.400  0.500  1.561231  79.4349  16.6716  8.693961
  9660.286  9660.300  0.500  1.579065  79.4379  16.3775  7.951858
  9661.193  9661.200  0.500  1.606911  79.43  15.9262  6.716226
  9662.096  9662.100  0.500  1.656512  79.3645  15.143  5.468938
  9663.004  9663.000  0.500  1.753984  79.3137  13.7279  4.410271
  9663.895  9663.900  0.500  1.934836  79.2862  11.4527  3.388944
  9664.787  9664.800  0.500  2.255847  79.2567  8.304898  2.328388
  9665.707  9665.700  0.500  2.679340  79.2414  5.436622  1.468781
  9666.603  9666.600  0.500  2.995222  79.0281  3.953420  1.024444
  9667.504  9667.500  0.500  3.091187  79.1119  3.595475  0.885527
  9668.392  9668.400  0.500  3.173857  79.1869  3.313333  0.778861
  9669.305  9669.300  0.500  3.320474  79.1889  2.861545  0.645086
  9670.210  9670.200  0.500  3.328645  79.1673  2.837484  0.617593
  9671.094  9671.100  0.500  3.081944  79.1146  3.628987  0.779010
  9671.996  9672.000  0.500  2.818357  79.0442  4.719251  1.029108
  9672.897  9672.900  0.500  2.692355  79.0362  5.352426  1.218116
  9673.810  9673.800  0.500  2.708712  79.2819  5.281962  1.262118
  9674.708  9674.700  0.500  2.774463  79.3367  4.949255  1.229911
  9675.602  9675.600  0.500  2.817508  79.2848  4.737633  1.205125
  9676.492  9676.500  0.500  2.855483  79.2068  4.556612  1.172560
  9677.410  9677.400  0.500  2.930015  79.1923  4.228570  1.094599
  9678.304  9678.300  0.500  3.040213  79.1974  3.787592  0.981245
  9679.199  9679.200  0.500  3.095028  79.1711  3.584372  0.930282
  9680.097  9680.100  0.500  3.029293  79.1093  3.824918  1.001018
  9680.996  9681.000  0.500  2.926449  79.0818  4.237755  1.124315
  9681.911  9681.900  0.500  2.841832  79.0464  4.609887  1.243780
  9682.807  9682.800  0.500  2.761090  79.1135  5.001777  1.370747
  9683.605  9683.600  0.500  2.698322  79.0892  5.324159  1.473091
  9686.632  9686.610  0.500  2.651001  79.0118  5.576699  1.554511
  9689.823  9689.800  0.500  2.592084  78.9415  5.909865  1.614378
  9693.184  9693.160  0.500  2.482594  78.8129  6.582952  1.732482
  9696.684  9696.680  0.500  2.454605  78.7154  6.761426  1.719471
  9700.387  9700.380  0.500  2.516263  78.6723  6.353635  1.595725
  9704.263  9704.250  0.500  2.553559  78.5294  6.109921  1.566522
  9708.313  9708.300  0.500  2.547384  78.3088  6.130500  1.606668
  9712.530  9712.510  0.500  2.552732  78.3967  6.104649  1.596316
  9716.914  9716.890  0.500  2.608899  78.2893  5.763310  1.489692
  9721.469  9721.450  0.500  2.688491  78.1246  5.311178  1.379553
  9726.188  9726.180  0.500  2.745100  78.0181  5.012029  1.304076
  9731.096  9731.080  0.500  2.739200  77.8019  5.027717  1.295887
  9736.165  9736.150  0.500  2.705813  77.7934  5.197846  1.315552
  9741.403  9741.390  0.500  2.695645  77.6627  5.242144  1.321797
  9746.832  9746.810  0.500  2.650186  77.5252  5.476227  1.415324
  9752.398  9752.390  0.500  2.615793  77.3621  5.655931  1.495771
  9758.168  9758.150  0.500  2.578107  77.2042  5.861155  1.570249
  9764.098  9764.080  0.500  2.553848  77.0286  5.991424  1.615039
  9770.192  9770.180  0.500  2.551911  76.777  5.983434  1.592235
  9776.467  9776.450  0.500  2.568339  76.757  5.884401  1.537889
  9782.920  9782.890  0.500  2.591129  76.04  5.698091  1.464658
  9789.506  9789.500  0.500  2.609232  76.3665  5.619890  1.449856
  9796.276  9796.290  0.500  2.598268  76.1444  5.665320  1.471412
  9803.242  9803.250  0.500  2.572606  75.3326  5.750615  1.511659
  9810.371  9810.370  0.500  2.570141  75.8478  5.804232  1.550482
  9817.662  9817.670  0.500  2.580763  75.545  5.719982  1.555770
  9825.160  9825.150  0.500  2.590232  75.3799  5.653697  1.538733
  9832.786  9832.790  0.500  2.589925  75.1398  5.637414  1.514040
  9840.600  9840.600  0.500  2.572096  74.9368  5.723319  1.533673
  9848.595  9848.590  0.500  2.550855  74.7265  5.829787  1.560541
  9856.759  9856.750  0.500  2.523531  74.5378  5.976140  1.596331
  9865.066  9865.070  0.500  2.503806  74.3551  6.080253  1.625687
  9873.565  9873.570  0.500  2.503751  74.2783  6.074306  1.640529
  9882.244  9882.250  0.500  2.507314  72.8239  5.934191  1.628114
  9891.095  9891.090  0.500  2.506109  73.8674  6.026477  1.673017
  9900.127  9900.100  0.500  2.503271  73.6281  6.024024  1.675011
  9909.308  9909.290  0.500  2.495803  73.412  6.051363  1.677245
  9918.651  9918.650  0.500  2.487269  73.1295  6.079743  1.684798
  9928.200  9928.170  0.500  2.478551  72.7643  6.102358  1.693176
  9937.895  9937.870  0.500  2.470479  72.6253  6.140058  1.708200
  9947.777  9947.750  0.500  2.460354  72.5305  6.194443  1.730385
  9957.799  9957.790  0.500  2.450477  72.0936  6.218243  1.749852
  9968.030  9968.000  0.500  2.439915  70.0142  6.103016  1.734601
  9978.404  9978.390  0.500  2.429243  71.5623  6.304889  1.803061
  9988.981  9988.950  0.500  2.416303  71.3718  6.370001  1.829647
  9999.685  9999.680  0.500  2.404518  70.3705  6.355088  1.830083
  10010.616  10010.580  0.500  2.394999  70.8743  6.461807  1.865592
  10021.663  10021.650  0.500  2.386912  70.4657  6.476713  1.875430
  10032.908  10032.890  0.500  2.379630  69.9696  6.478128  1.881127
  10044.341  10044.310  0.500  2.372901  70.0015  6.524841  1.904795
  10055.919  10055.890  0.500  2.365252  69.6501  6.541930  1.923868
  10067.682  10067.650  0.500  2.355436  69.3585  6.578804  1.946613
  10079.601  10079.580  0.500  2.344370  69.0067  6.618265  1.968019
  10091.703  10091.680  0.500  2.332850  68.7344  6.668532  1.992979
  10103.958  10103.950  0.500  2.321279  68.3887  6.712214  2.013887
  10116.407  10116.390  0.500  2.309842  68.0656  6.757346  2.035914
  10129.030  10129.010  0.500  2.299044  67.753  6.799335  2.055783
  10141.805  10141.790  0.500  2.288371  67.4136  6.837869  2.077374
  10154.760  10154.750  0.500  2.278055  67.0727  6.873834  2.099170
  10167.902  10167.880  0.500  2.267692  66.7439  6.911389  2.122412
  10181.204  10181.180  0.500  2.257532  66.4245  6.948553  2.145310
  10194.653  10194.650  0.500  2.247543  65.8419  6.956761  2.158356
  10208.315  10208.300  0.500  2.237724  65.7514  7.015752  2.188274
  10222.123  10222.110  0.500  2.227408  65.3988  7.050479  2.209171
  10236.128  10236.100  0.500  2.217003  65.0664  7.088010  2.232010
  10250.277  10250.260  0.500  2.205825  64.7374  7.131450  2.254446
  10264.607  10264.590  0.500  2.194671  64.3673  7.170206  2.278062
  10279.115  10279.090  0.500  2.182783  63.9986  7.214394  2.304182
  10293.794  10293.760  0.500  2.171278  63.5838  7.250576  2.327556
  10308.631  10308.600  0.500  2.159946  63.3058  7.301149  2.356074
  10323.640  10323.620  0.500  2.148660  62.9842  7.346492  2.382237
  10338.819  10338.800  0.500  2.137677  62.6162  7.384234  2.406296
  10354.192  10354.160  0.500  2.126951  62.1987  7.414096  2.428458
  10369.719  10369.690  0.500  2.116093  61.8023  7.447269  2.450491
  10385.430  10385.390  0.500  2.105136  61.4569  7.487245  2.475722
  10401.291  10401.260  0.500  2.094289  61.0854  7.523141  2.500668
  10417.344  10417.310  0.500  2.083084  60.6388  7.552298  2.523087
  10433.546  10433.520  0.500  2.071634  60.2859  7.594807  2.550457
  10449.936  10449.910  0.500  2.059968  59.9556  7.641825  2.579173
  10466.498  10466.470  0.500  2.048308  59.4705  7.668894  2.601143
  10483.228  10483.200  0.500  2.036545  59.3528  7.744273  2.640057
  10500.136  10500.100  0.500  2.025105  58.945  7.779563  2.665174
  10511.489  10511.460  0.500  2.017198  58.652  7.802341  2.681964

File: Zn-Hemimorphite.xdi
# XDI/1.0 BlueSky/1.10.0 BMM/2023-1.0-py310-tiled
# Beamline.name: BMM (06BM) -- Beamline for Materials Measurement (NIST)
# Beamline.xray_source: NSLS-II three-pole wiggler
# Beamline.collimation: paraboloid mirror, 5 nm Rh on 30 nm Pt
# Beamline.focusing: not in use
# Beamline.harmonic_rejection: flat mirror, Pt stripe, pitch = 7.0 mrad relative to beam
# Beamline.software: Bluesky 1.10.0, Ophyd 1.7.0, DataBroker 2.0.0b13, Python 3.10.8, 2023-1.0-py310-tiled
# Detector.I0: 10 cm N2
# Detector.I1: 25 cm N2
# Detector.I2: 25 cm N2
# Element.symbol: Zn
# Element.edge: K
# Element.reference: Zn
# Element.reference_material: Zn foil
# Facility.name: NSLS-II
# Facility.energy: 3.0
# Facility.current: 400.0
# Facility.mode: top-off
# Facility.GUP: 123456
# Facility.SAF: 301027
# Facility.cycle: 2023-2
# Mono.name: Si(111)
# Mono.d_spacing: 3.13519
# Mono.encoder_resolution: 0.0000050 deg/ct
# Mono.angle_offset: 16.0754 deg
# Mono.scan_mode: pseudo channel cut
# Mono.scan_type: step
# Mono.direction: forward in energy
# Sample.name: Zn4Si2O7(OH)2Â·H2O
# Sample.prep: powder in PEG pellet
# Sample.x: 116.329 mm
# Sample.y: 114.126 mm
# Sample.SDD_position: 205.000 mm
# Scan.experimenters: Bruce Ravel
# Scan.edge_energy: 9658.6
# Scan.start_time: 2023-05-06T13:31:23
# Scan.end_time: 2023-05-06T13:39:20
# Scan.transient_id: 74825
# Scan.uid: 237a2b16-d41e-4929-bfcb-6a4214067ad9
# Scan.plot_hint: ln(I0/It)  --  ln($5/$6)
# Column.1: energy eV
# Column.2: requested_energy eV
# Column.3: measurement_time seconds
# Column.4: xmu
# Column.5: I0 nA
# Column.6: It nA
# Column.7: Ir nA
# ///////////
# sample courtesy Martin Stennett, University of Sheffield
# -----------
# energy  requested_energy  measurement_time  xmu  I0  It  Ir
  9458.611  9458.600  0.500  1.471377  105.457  24.2139  13.3404
  9488.637  9488.600  0.500  1.453993  104.913  24.5114  13.5794
  9518.627  9518.600  0.500  1.436559  104.355  24.8097  13.8196
  9548.639  9548.600  0.500  1.420024  103.803  25.09  14.0502
  9578.678  9578.600  0.500  1.404366  103.265  25.3538  14.2688
  9608.621  9608.600  0.500  1.391883  102.717  25.5362  14.4353
  9630.591  9630.600  0.500  1.390821  102.291  25.4572  14.4125
  9636.580  9636.600  0.500  1.394564  102.162  25.3303  14.3377
  9642.585  9642.600  0.500  1.402689  102.049  25.0973  14.1862
  9648.593  9648.600  0.500  1.421190  101.704  24.5541  13.8274
  9649.466  9649.500  0.500  1.425573  101.76  24.4602  13.7624
  9650.367  9650.400  0.500  1.430449  101.846  24.3618  13.6891
  9651.268  9651.300  0.500  1.436467  101.846  24.2156  13.5902
  9652.165  9652.200  0.500  1.443600  101.827  24.0389  13.4653
  9653.071  9653.100  0.500  1.451720  101.802  23.8387  13.3246
  9653.981  9654.000  0.500  1.461545  101.779  23.6002  13.1534
  9654.883  9654.900  0.500  1.473338  101.75  23.3169  12.9508
  9655.793  9655.800  0.500  1.488288  101.722  22.9647  12.6912
  9656.695  9656.700  0.500  1.506475  102.026  22.6182  12.4152
  9657.590  9657.600  0.500  1.528872  101.99  22.1094  12.015
  9658.492  9658.500  0.500  1.558642  101.97  21.4566  11.4637
  9659.395  9659.400  0.500  1.600059  101.94  20.58  10.6198
  9660.294  9660.300  0.500  1.660520  101.908  19.3665  9.199065
  9661.197  9661.200  0.500  1.752788  101.889  17.6564  7.252851
  9662.104  9662.100  0.500  1.911962  101.861  15.0541  5.342248
  9662.996  9663.000  0.500  2.183564  101.837  11.4708  3.655764
  9663.887  9663.900  0.500  2.637626  101.818  7.283138  2.149518
  9664.807  9664.800  0.500  3.314414  101.791  3.700657  1.035244
  9665.707  9665.700  0.500  3.988055  101.721  1.885470  0.507839
  9666.591  9666.600  0.500  4.421300  101.541  1.220386  0.314685
  9667.491  9667.500  0.500  4.538987  101.571  1.085208  0.265663
  9668.396  9668.400  0.500  4.558152  101.673  1.065678  0.248711
  9669.301  9669.300  0.500  4.657029  101.669  0.965306  0.216565
  9670.201  9670.200  0.500  4.760733  101.649  0.870050  0.188738
  9671.094  9671.100  0.500  4.757397  101.628  0.872772  0.186528
  9672.000  9672.000  0.500  4.673811  101.598  0.948583  0.206056
  9672.897  9672.900  0.500  4.575042  101.579  1.046865  0.238061
  9673.802  9673.800  0.500  4.475679  101.557  1.155970  0.276321
  9674.704  9674.700  0.500  4.375644  101.524  1.277175  0.317008
  9675.598  9675.600  0.500  4.278496  101.496  1.407096  0.356923
  9676.496  9676.500  0.500  4.183695  101.464  1.546529  0.397092
  9677.406  9677.400  0.500  4.099569  101.438  1.681819  0.434006
  9678.304  9678.300  0.500  4.038543  101.413  1.787214  0.461936
  9679.207  9679.200  0.500  4.000316  101.387  1.856391  0.481466
  9680.089  9680.100  0.500  3.973040  101.365  1.907305  0.498286
  9680.988  9681.000  0.500  3.950809  101.338  1.949661  0.516594
  9681.887  9681.900  0.500  3.936377  101.308  1.977421  0.532487
  9682.798  9682.800  0.500  3.937263  101.283  1.975166  0.539914
  9683.592  9683.600  0.500  3.950575  101.254  1.948495  0.537799
  9686.624  9686.610  0.500  3.991406  101.193  1.869407  0.519334
  9689.819  9689.800  0.500  3.904815  101.128  2.037191  0.554205
  9693.196  9693.160  0.500  3.612292  101.056  2.727481  0.715273
  9696.696  9696.680  0.500  3.587981  100.983  2.792608  0.708316
  9700.724  9700.380  0.500  3.719390  100.857  2.445648  0.613224
  9704.287  9704.250  0.500  3.830253  100.78  2.187333  0.559828
  9708.321  9708.300  0.500  3.960280  100.51  1.915494  0.500627
  9712.534  9712.510  0.500  4.038036  100.667  1.774968  0.462678
  9716.914  9716.890  0.500  4.064885  100.569  1.726255  0.444582
  9721.473  9721.450  0.500  4.091014  100.474  1.680156  0.434974
  9726.201  9726.180  0.500  4.082229  100.377  1.693351  0.438904
  9731.088  9731.080  0.500  4.055036  100.292  1.738555  0.446859
  9736.161  9736.150  0.500  4.030529  100.201  1.780062  0.449304
  9741.407  9741.390  0.500  3.975756  100.11  1.878581  0.472313
  9746.819  9746.810  0.500  3.924244  100.325  1.982131  0.510930
  9752.402  9752.390  0.500  3.904582  100.22  2.019362  0.532629
  9758.177  9758.150  0.500  3.908703  100.107  2.008790  0.536848
  9764.098  9764.080  0.500  3.916937  99.9944  1.990085  0.534629
  9770.196  9770.180  0.500  3.911975  99.8176  1.996447  0.529290
  9776.455  9776.450  0.500  3.906415  99.758  2.006380  0.522589
  9782.900  9782.890  0.500  3.927282  98.3029  1.936284  0.496100
  9789.498  9789.500  0.500  3.965698  99.4599  1.885243  0.485219
  9796.305  9796.290  0.500  3.961279  99.4391  1.893196  0.490155
  9803.258  9803.250  0.500  3.953044  98.7847  1.896289  0.497091
  9810.380  9810.370  0.500  3.944696  99.1474  1.919206  0.511135
  9817.687  9817.670  0.500  3.936039  99.0092  1.933194  0.524310
  9825.164  9825.150  0.500  3.923656  98.8158  1.953460  0.530274
  9832.819  9832.790  0.500  3.905441  98.6515  1.986060  0.531552
  9840.625  9840.600  0.500  3.896389  98.5104  2.001252  0.535022
  9848.608  9848.590  0.500  3.888753  98.3276  2.012848  0.537143
  9856.754  9856.750  0.500  3.880538  98.1585  2.025964  0.539486
  9865.066  9865.070  0.500  3.881423  97.9877  2.020648  0.539021
  9873.591  9873.570  0.500  3.877253  97.7982  2.025170  0.545181
  9882.278  9882.250  0.500  3.865561  95.981  2.010913  0.550621
  9891.082  9891.090  0.500  3.860561  97.3841  2.050537  0.567819
  9900.136  9900.100  0.500  3.860875  97.1895  2.045797  0.567008
  9909.313  9909.290  0.500  3.854216  96.9929  2.055299  0.567951
  9918.656  9918.650  0.500  3.849413  96.7868  2.060806  0.569434
  9928.191  9928.170  0.500  3.844135  96.5068  2.065719  0.571690
  9937.887  9937.870  0.500  3.832700  96.3971  2.087102  0.579097
  9947.768  9947.750  0.500  3.815898  96.139  2.116781  0.589797
  9957.812  9957.790  0.500  3.801007  95.8816  2.142787  0.601532
  9968.026  9968.000  0.500  3.794590  92.7197  2.085463  0.591593
  9978.413  9978.390  0.500  3.786339  95.4898  2.165563  0.617729
  9988.951  9988.950  0.500  3.778489  95.2298  2.176685  0.623674
  9999.698  9999.680  0.500  3.772963  94.4554  2.170950  0.623495
  10010.590  10010.580  0.500  3.763716  94.7615  2.198217  0.632952
  10021.654  10021.650  0.500  3.752943  94.5303  2.216606  0.639729
  10032.913  10032.890  0.500  3.741983  94.1623  2.232308  0.646669
  10044.320  10044.310  0.500  3.733783  94.0724  2.248542  0.654483
  10055.902  10055.890  0.500  3.725975  93.7888  2.259336  0.662495
  10067.674  10067.650  0.500  3.717271  93.5199  2.272552  0.670527
  10079.592  10079.580  0.500  3.706534  93.2469  2.290377  0.679354
  10091.707  10091.680  0.500  3.696307  92.8557  2.304213  0.686876
  10103.962  10103.950  0.500  3.684935  92.6649  2.325777  0.696564
  10116.403  10116.390  0.500  3.673082  92.3846  2.346390  0.704247
  10129.030  10129.010  0.500  3.662550  92.1143  2.364295  0.713081
  10141.809  10141.790  0.500  3.653511  91.8155  2.378024  0.720165
  10154.760  10154.750  0.500  3.643948  91.5317  2.393452  0.728705
  10167.911  10167.880  0.500  3.634191  91.2406  2.409233  0.738047
  10181.208  10181.180  0.500  3.624339  90.9449  2.425204  0.746682
  10194.662  10194.650  0.500  3.614476  90.3696  2.433747  0.753268
  10208.329  10208.300  0.500  3.603530  90.2958  2.458525  0.764500
  10222.146  10222.110  0.500  3.593084  90.2947  2.484310  0.776550
  10236.137  10236.100  0.500  3.582075  89.9605  2.502512  0.785485
  10250.286  10250.260  0.500  3.571149  89.6642  2.521672  0.795190
  10264.607  10264.590  0.500  3.560314  89.3539  2.540323  0.805111
  10279.115  10279.090  0.500  3.549386  89.028  2.558868  0.814910
  10293.794  10293.760  0.500  3.538619  88.7042  2.577162  0.825578
  10308.635  10308.600  0.500  3.527028  88.361  2.597119  0.835895
  10323.649  10323.620  0.500  3.516170  88.0443  2.616061  0.846336
  10338.824  10338.800  0.500  3.505166  87.6988  2.634629  0.856859
  10354.188  10354.160  0.500  3.494430  87.3708  2.653106  0.866702
  10369.719  10369.690  0.500  3.483432  86.9989  2.671030  0.876770
  10385.425  10385.390  0.500  3.473160  86.6539  2.687904  0.886821
  10401.287  10401.260  0.500  3.462027  86.3092  2.707185  0.897725
  10417.348  10417.310  0.500  3.450523  85.9699  2.727743  0.909087
  10433.546  10433.520  0.500  3.438659  85.622  2.749126  0.920757
  10449.936  10449.910  0.500  3.427139  85.2617  2.769277  0.932345
  10466.503  10466.470  0.500  3.415427  84.9042  2.790154  0.943790
  10483.228  10483.200  0.500  3.403671  84.5434  2.811150  0.955873
  10500.136  10500.100  0.500  3.392055  84.1802  2.831776  0.967506
  10511.479  10511.460  0.500  3.384588  83.8736  2.842610  0.974759