Folder: webxdiviewer/xdidata/Zn (part 3)

File: Zn-Willemite.xdi
# XDI/1.0 BlueSky/1.10.0 BMM/2023-1.0-py310-tiled
# Beamline.name: BMM (06BM) -- Beamline for Materials Measurement (NIST)
# Beamline.xray_source: NSLS-II three-pole wiggler
# Beamline.collimation: paraboloid mirror, 5 nm Rh on 30 nm Pt
# Beamline.focusing: not in use
# Beamline.harmonic_rejection: flat mirror, Pt stripe, pitch = 7.0 mrad relative to beam
# Beamline.software: Bluesky 1.10.0, Ophyd 1.7.0, DataBroker 2.0.0b13, Python 3.10.8, 2023-1.0-py310-tiled
# Detector.I0: 10 cm N2
# Detector.I1: 25 cm N2
# Detector.I2: 25 cm N2
# Element.symbol: Zn
# Element.edge: K
# Element.reference: Zn
# Element.reference_material: Zn foil
# Facility.name: NSLS-II
# Facility.energy: 3.0
# Facility.current: 399.8
# Facility.mode: top-off
# Facility.GUP: 123456
# Facility.SAF: 301027
# Facility.cycle: 2023-2
# Mono.name: Si(111)
# Mono.d_spacing: 3.13519
# Mono.encoder_resolution: 0.0000050 deg/ct
# Mono.angle_offset: 16.0754 deg
# Mono.scan_mode: pseudo channel cut
# Mono.scan_type: step
# Mono.direction: forward in energy
# Sample.name: Zn2SiO4
# Sample.prep: powder in PEG pellet
# Sample.x: 116.329 mm
# Sample.y: 114.126 mm
# Sample.SDD_position: 205.000 mm
# Scan.experimenters: Bruce Ravel
# Scan.edge_energy: 9658.6
# Scan.start_time: 2023-05-06T13:39:55
# Scan.end_time: 2023-05-06T13:47:50
# Scan.transient_id: 74830
# Scan.uid: 06e19baa-8988-4e39-8440-16f465e508f2
# Scan.plot_hint: ln(I0/It)  --  ln($5/$6)
# Column.1: energy eV
# Column.2: requested_energy eV
# Column.3: measurement_time seconds
# Column.4: xmu
# Column.5: I0 nA
# Column.6: It nA
# Column.7: Ir nA
# ///////////
# sample courtesy Martin Stennett, University of Sheffield
# -----------
# energy  requested_energy  measurement_time  xmu  I0  It  Ir
  9458.608  9458.600  0.500  1.584917  105.393  21.6018  11.9214
  9488.656  9488.600  0.500  1.566297  104.871  21.8989  12.1525
  9518.655  9518.600  0.500  1.547987  104.328  22.1881  12.3791
  9548.619  9548.600  0.500  1.530409  103.784  22.4637  12.6001
  9578.627  9578.600  0.500  1.514206  103.231  22.7091  12.8008
  9608.640  9608.600  0.500  1.501183  102.693  22.8869  12.9589
  9630.595  9630.600  0.500  1.500215  102.294  22.8199  12.94
  9636.580  9636.600  0.500  1.504074  102.161  22.7025  12.8704
  9642.581  9642.600  0.500  1.512806  102.044  22.4793  12.7268
  9648.581  9648.600  0.500  1.532539  101.711  21.9682  12.3895
  9649.466  9649.500  0.500  1.537111  101.771  21.8808  12.3281
  9650.379  9650.400  0.500  1.542463  101.852  21.7815  12.2581
  9651.272  9651.300  0.500  1.548892  102.172  21.7099  12.1999
  9652.186  9652.200  0.500  1.556456  102.153  21.5422  12.0846
  9653.079  9653.100  0.500  1.565243  102.128  21.3486  11.9499
  9653.973  9654.000  0.500  1.575661  102.099  21.1212  11.7903
  9654.879  9654.900  0.500  1.588719  102.07  20.8414  11.5926
  9655.781  9655.800  0.500  1.604888  102.043  20.5016  11.3483
  9656.695  9656.700  0.500  1.624986  102.012  20.0877  11.0437
  9657.594  9657.600  0.500  1.649917  102.002  19.5911  10.6653
  9658.496  9658.500  0.500  1.683292  101.98  18.944  10.1398
  9659.391  9659.400  0.500  1.730358  101.957  18.0689  9.352830
  9660.278  9660.300  0.500  1.800059  101.924  16.847  8.056850
  9661.189  9661.200  0.500  1.913024  101.902  15.0441  6.236206
  9662.100  9662.100  0.500  2.116053  101.881  12.2773  4.387871
  9663.004  9663.000  0.500  2.471597  101.852  8.601359  2.755382
  9663.899  9663.900  0.500  3.078997  101.838  4.685086  1.389774
  9664.787  9664.800  0.500  4.014506  101.815  1.837943  0.517334
  9665.691  9665.700  0.500  5.111704  101.735  0.613037  0.164813
  9666.603  9666.600  0.500  5.889073  101.552  0.281253  0.071148
  9667.504  9667.500  0.500  6.030154  101.582  0.244317  0.058191
  9668.396  9668.400  0.500  5.950263  101.685  0.264905  0.060254
  9669.297  9669.300  0.500  5.904552  101.667  0.277246  0.060865
  9670.197  9670.200  0.500  5.849054  101.64  0.292991  0.062317
  9671.111  9671.100  0.500  5.758433  101.615  0.320701  0.067703
  9672.012  9672.000  0.500  5.700627  101.587  0.339694  0.072828
  9672.893  9672.900  0.500  5.734653  101.568  0.328269  0.073475
  9673.794  9673.800  0.500  5.786097  101.549  0.311748  0.073253
  9674.696  9674.700  0.500  5.751674  101.518  0.322569  0.078849
  9675.602  9675.600  0.500  5.625290  101.496  0.365946  0.091530
  9676.504  9676.500  0.500  5.480087  101.467  0.423014  0.107381
  9677.402  9677.400  0.500  5.384974  101.444  0.465119  0.118596
  9678.300  9678.300  0.500  5.317750  101.428  0.497379  0.127154
  9679.199  9679.200  0.500  5.227220  101.397  0.544343  0.139708
  9680.097  9680.100  0.500  5.128766  101.376  0.600538  0.155885
  9681.008  9681.000  0.500  5.063675  101.361  0.640832  0.168744
  9681.899  9681.900  0.500  5.057036  101.336  0.644943  0.172569
  9682.798  9682.800  0.500  5.094240  101.308  0.621219  0.168489
  9683.592  9683.600  0.500  5.136510  101.29  0.595402  0.163171
  9686.624  9686.610  0.500  5.011734  101.231  0.674129  0.185900
  9689.823  9689.800  0.500  4.707995  101.154  0.912694  0.247283
  9693.184  9693.160  0.500  4.478298  101.087  1.147609  0.299546
  9696.684  9696.680  0.500  4.430088  101.013  1.203412  0.304077
  9700.391  9700.380  0.500  4.454830  100.938  1.173127  0.293210
  9704.283  9704.250  0.500  4.504808  100.846  1.114923  0.284557
  9708.330  9708.300  0.500  4.609495  100.584  1.001497  0.261024
  9712.538  9712.510  0.500  4.820820  100.722  0.811836  0.210571
  9716.922  9716.890  0.500  5.017186  100.595  0.666254  0.170609
  9721.457  9721.450  0.500  5.097269  100.778  0.616096  0.158378
  9726.193  9726.180  0.500  5.097155  100.67  0.615509  0.158334
  9731.092  9731.080  0.500  5.081707  100.572  0.624484  0.159001
  9736.161  9736.150  0.500  5.033852  100.472  0.654440  0.163979
  9741.411  9741.390  0.500  4.969374  100.358  0.697237  0.174217
  9746.819  9746.810  0.500  4.912010  100.25  0.737605  0.188913
  9752.402  9752.390  0.500  4.832599  100.128  0.797599  0.208995
  9758.173  9758.150  0.500  4.773280  100.001  0.845273  0.224701
  9764.094  9764.080  0.500  4.741183  99.8719  0.871713  0.233122
  9770.188  9770.180  0.500  4.735869  99.6897  0.874759  0.230520
  9776.459  9776.450  0.500  4.786162  99.6003  0.831106  0.215374
  9782.904  9782.890  0.500  4.808004  98.1755  0.801519  0.204423
  9789.511  9789.500  0.500  4.817487  99.2802  0.802887  0.205540
  9796.301  9796.290  0.500  4.831199  99.2563  0.791762  0.203995
  9803.266  9803.250  0.500  4.855229  98.5767  0.767671  0.199887
  9810.388  9810.370  0.500  4.857059  98.9581  0.769233  0.203541
  9817.687  9817.670  0.500  4.849378  98.8021  0.773941  0.208646
  9825.172  9825.150  0.500  4.833916  98.6178  0.784535  0.211470
  9832.803  9832.790  0.500  4.817803  98.4507  0.795927  0.211964
  9840.613  9840.600  0.500  4.798307  98.3124  0.810457  0.215301
  9848.599  9848.590  0.500  4.754077  98.1328  0.845560  0.224536
  9856.759  9856.750  0.500  4.730526  97.9641  0.864223  0.228753
  9865.087  9865.070  0.500  4.703714  97.7813  0.886051  0.235183
  9873.591  9873.570  0.500  4.693623  97.6078  0.893450  0.239390
  9882.257  9882.250  0.500  4.695565  95.7359  0.874615  0.238380
  9891.099  9891.090  0.500  4.706648  97.1947  0.878155  0.242002
  9900.115  9900.100  0.500  4.713718  97.0014  0.870234  0.239771
  9909.308  9909.290  0.500  4.705744  96.8045  0.875421  0.240463
  9918.664  9918.650  0.500  4.680463  96.6087  0.896018  0.246241
  9928.191  9928.170  0.500  4.661814  96.3277  0.910230  0.250570
  9937.891  9937.870  0.500  4.657304  96.2327  0.913443  0.252316
  9947.781  9947.750  0.500  4.643353  95.9873  0.923913  0.256079
  9957.803  9957.790  0.500  4.619765  95.7392  0.943521  0.263649
  9968.018  9968.000  0.500  4.599100  92.5827  0.931464  0.262682
  9978.408  9978.390  0.500  4.581527  95.369  0.976507  0.277295
  9988.960  9988.950  0.500  4.563265  95.1163  0.991869  0.282770
  9999.702  9999.680  0.500  4.543447  94.3206  1.003258  0.286750
  10010.603  10010.580  0.500  4.532682  94.6947  1.018138  0.292336
  10021.663  10021.650  0.500  4.523598  94.4683  1.024972  0.294420
  10032.900  10032.890  0.500  4.517053  94.119  1.027888  0.296536
  10044.333  10044.310  0.500  4.505148  94.0485  1.039419  0.301464
  10055.893  10055.890  0.500  4.490027  93.7827  1.052274  0.307339
  10067.660  10067.650  0.500  4.475039  93.5189  1.065159  0.313140
  10079.579  10079.580  0.500  4.456603  93.2597  1.081972  0.319650
  10091.703  10091.680  0.500  4.436834  92.8706  1.098970  0.326595
  10103.971  10103.950  0.500  4.417861  92.7081  1.118060  0.333550
  10116.403  10116.390  0.500  4.401489  92.4481  1.133327  0.339202
  10129.030  10129.010  0.500  4.385820  92.49  1.151748  0.346203
  10141.818  10141.790  0.500  4.368704  92.1983  1.167936  0.352586
  10154.760  10154.750  0.500  4.352812  91.9109  1.182946  0.358926
  10167.897  10167.880  0.500  4.337580  91.6233  1.197344  0.365614
  10181.204  10181.180  0.500  4.323603  91.3331  1.210352  0.371524
  10194.676  10194.650  0.500  4.309348  90.7729  1.220197  0.376546
  10208.324  10208.300  0.500  4.293895  90.697  1.238163  0.383829
  10222.141  10222.110  0.500  4.278485  90.4147  1.253478  0.391039
  10236.124  10236.100  0.500  4.262435  90.0633  1.268808  0.397009
  10250.277  10250.260  0.500  4.244874  89.8002  1.287514  0.404879
  10264.607  10264.590  0.500  4.226357  89.4728  1.306794  0.412811
  10279.115  10279.090  0.500  4.208498  89.17  1.325841  0.421110
  10293.794  10293.760  0.500  4.191457  88.8269  1.343439  0.428830
  10308.635  10308.600  0.500  4.174948  88.4961  1.360715  0.436861
  10323.654  10323.620  0.500  4.158517  88.1833  1.378369  0.444930
  10338.828  10338.800  0.500  4.142812  87.845  1.394815  0.452422
  10354.192  10354.160  0.500  4.126476  87.5223  1.412579  0.460362
  10369.715  10369.690  0.500  4.110480  87.155  1.429333  0.468321
  10385.416  10385.390  0.500  4.094498  86.8107  1.446624  0.476497
  10401.296  10401.260  0.500  4.077911  86.4556  1.464803  0.484527
  10417.339  10417.310  0.500  4.060915  86.0953  1.483701  0.493355
  10433.555  10433.520  0.500  4.043549  85.7629  1.503863  0.502605
  10449.941  10449.910  0.500  4.026017  85.3989  1.523966  0.511601
  10466.498  10466.470  0.500  4.008313  85.0355  1.544585  0.521696
  10483.228  10483.200  0.500  3.990650  84.6809  1.565555  0.530872
  10500.127  10500.100  0.500  3.973682  84.3193  1.585547  0.541141
  10511.484  10511.460  0.500  3.961796  84.0197  1.598802  0.547100

File: Zn-Zincite.xdi
# XDI/1.0 BlueSky/1.10.0 BMM/2023-1.0-py310-tiled
# Beamline.name: BMM (06BM) -- Beamline for Materials Measurement (NIST)
# Beamline.xray_source: NSLS-II three-pole wiggler
# Beamline.collimation: paraboloid mirror, 5 nm Rh on 30 nm Pt
# Beamline.focusing: not in use
# Beamline.harmonic_rejection: flat mirror, Pt stripe, pitch = 7.0 mrad relative to beam
# Beamline.software: Bluesky 1.10.0, Ophyd 1.7.0, DataBroker 2.0.0b13, Python 3.10.8, 2023-1.0-py310-tiled
# Detector.I0: 10 cm N2
# Detector.I1: 25 cm N2
# Detector.I2: 25 cm N2
# Element.symbol: Zn
# Element.edge: K
# Element.reference: Zn
# Element.reference_material: Zn foil
# Facility.name: NSLS-II
# Facility.energy: 3.0
# Facility.current: 399.6
# Facility.mode: top-off
# Facility.GUP: 123456
# Facility.SAF: 301027
# Facility.cycle: 2023-2
# Mono.name: Si(111)
# Mono.d_spacing: 3.13519
# Mono.encoder_resolution: 0.0000050 deg/ct
# Mono.angle_offset: 16.0754 deg
# Mono.scan_mode: pseudo channel cut
# Mono.scan_type: step
# Mono.direction: forward in energy
# Sample.name: ZnO
# Sample.prep: powder in PEG pellet
# Sample.x: 116.329 mm
# Sample.y: 114.126 mm
# Sample.SDD_position: 205.000 mm
# Scan.experimenters: Bruce Ravel
# Scan.edge_energy: 9658.6
# Scan.start_time: 2023-05-06T13:48:26
# Scan.end_time: 2023-05-06T13:56:30
# Scan.transient_id: 74835
# Scan.uid: d76eba74-f7b4-479a-94c9-665810198dca
# Scan.plot_hint: ln(I0/It)  --  ln($5/$6)
# Column.1: energy eV
# Column.2: requested_energy eV
# Column.3: measurement_time seconds
# Column.4: xmu
# Column.5: I0 nA
# Column.6: It nA
# Column.7: Ir nA
# ///////////
# sample courtesy Martin Stennett, University of Sheffield
# -----------
# energy  requested_energy  measurement_time  xmu  I0  It  Ir
  9458.604  9458.600  0.500  1.526139  105.326  22.8951  12.6336
  9488.649  9488.600  0.500  1.508220  104.804  23.1934  12.8705
  9518.627  9518.600  0.500  1.490655  104.262  23.4825  13.1008
  9548.671  9548.600  0.500  1.473759  103.715  23.7573  13.3245
  9578.615  9578.600  0.500  1.458992  103.174  23.9848  13.5214
  9608.621  9608.600  0.500  1.449273  102.632  24.0919  13.6384
  9630.583  9630.600  0.500  1.455719  102.57  23.9228  13.5667
  9636.584  9636.600  0.500  1.464047  102.42  23.6897  13.4303
  9642.589  9642.600  0.500  1.480112  102.306  23.286  13.1832
  9648.593  9648.600  0.500  1.513577  101.969  22.4455  12.6593
  9649.462  9649.500  0.500  1.521079  102.006  22.2859  12.5554
  9650.363  9650.400  0.500  1.530230  102.097  22.1026  12.4392
  9651.268  9651.300  0.500  1.540672  102.084  21.8702  12.29
  9652.173  9652.200  0.500  1.553271  102.064  21.5921  12.1107
  9653.083  9653.100  0.500  1.568031  102.035  21.2697  11.9054
  9653.981  9654.000  0.500  1.585338  102.005  20.8985  11.6653
  9654.895  9654.900  0.500  1.606949  101.974  20.4457  11.3698
  9655.789  9655.800  0.500  1.634019  101.955  19.8958  11.0115
  9656.695  9656.700  0.500  1.667695  101.922  19.2308  10.5688
  9657.577  9657.600  0.500  1.709864  101.891  18.4311  10.0309
  9658.476  9658.500  0.500  1.768348  101.872  17.3808  9.304417
  9659.391  9659.400  0.500  1.856609  101.847  15.9087  8.228526
  9660.298  9660.300  0.500  1.998638  101.829  13.7998  6.587657
  9661.201  9661.200  0.500  2.239749  101.808  10.841  4.496705
  9662.088  9662.100  0.500  2.648429  101.792  7.203019  2.593196
  9662.988  9663.000  0.500  3.316272  101.765  3.692832  1.191648
  9663.899  9663.900  0.500  4.258468  101.747  1.439101  0.425656
  9664.803  9664.800  0.500  5.153286  101.731  0.588045  0.162287
  9665.699  9665.700  0.500  5.517640  101.667  0.408227  0.107019
  9666.599  9666.600  0.500  5.581633  101.474  0.382192  0.096080
  9667.495  9667.500  0.500  5.710236  101.501  0.336160  0.080386
  9668.404  9668.400  0.500  5.979855  101.61  0.256992  0.058359
  9669.305  9669.300  0.500  6.336524  101.602  0.179880  0.038815
  9670.222  9670.200  0.500  6.680738  101.579  0.127467  0.026326
  9671.098  9671.100  0.500  6.872760  101.566  0.105184  0.021220
  9671.987  9672.000  0.500  6.806532  101.539  0.112355  0.023307
  9672.901  9672.900  0.500  6.554073  101.509  0.144579  0.031570
  9673.806  9673.800  0.500  6.235313  101.492  0.198824  0.046308
  9674.704  9674.700  0.500  5.945093  101.464  0.265700  0.064608
  9675.602  9675.600  0.500  5.707392  101.435  0.336899  0.084100
  9676.488  9676.500  0.500  5.474505  101.416  0.425168  0.107801
  9677.394  9677.400  0.500  5.314320  101.386  0.498883  0.126931
  9678.304  9678.300  0.500  5.290289  101.367  0.510920  0.130215
  9679.203  9679.200  0.500  5.391007  101.337  0.461833  0.118038
  9680.101  9680.100  0.500  5.592493  101.309  0.377451  0.096660
  9681.000  9681.000  0.500  5.790334  101.286  0.309627  0.080349
  9681.903  9681.900  0.500  5.874767  101.262  0.284490  0.074860
  9682.807  9682.800  0.500  5.841912  101.238  0.293924  0.078451
  9683.609  9683.600  0.500  5.770748  101.213  0.315524  0.085205
  9686.620  9686.610  0.500  5.572879  101.152  0.384329  0.104798
  9689.815  9689.800  0.500  5.342052  101.087  0.483807  0.129626
  9693.184  9693.160  0.500  5.096563  101.013  0.617972  0.159972
  9696.705  9696.680  0.500  4.926893  100.939  0.731709  0.183831
  9700.411  9700.380  0.500  4.917692  100.974  0.738723  0.183623
  9704.255  9704.250  0.500  5.109852  101.065  0.610126  0.154464
  9708.313  9708.300  0.500  5.330289  100.816  0.488219  0.125871
  9712.530  9712.510  0.500  5.584570  100.961  0.379145  0.096910
  9716.918  9716.890  0.500  5.832349  100.845  0.295596  0.074158
  9721.494  9721.450  0.500  5.550659  100.745  0.391383  0.099480
  9726.389  9726.180  0.500  5.475209  100.601  0.421454  0.107665
  9731.101  9731.080  0.500  5.510343  100.515  0.406553  0.102567
  9736.173  9736.150  0.500  5.625536  100.407  0.361929  0.089603
  9741.428  9741.390  0.500  5.702410  100.302  0.334800  0.082386
  9746.791  9746.810  0.500  5.590640  100.174  0.373915  0.094455
  9752.378  9752.390  0.500  5.422799  100.042  0.441661  0.114432
  9758.152  9758.150  0.500  5.262107  99.9173  0.518008  0.136495
  9764.069  9764.080  0.500  5.215638  99.7845  0.541926  0.143686
  9770.176  9770.180  0.500  5.294382  99.6057  0.499992  0.130608
  9776.438  9776.450  0.500  5.426771  99.5221  0.437626  0.112130
  9782.887  9782.890  0.500  5.478121  98.134  0.409923  0.103117
  9789.506  9789.500  0.500  5.463607  99.195  0.420412  0.106363
  9796.301  9796.290  0.500  5.502470  99.1668  0.404272  0.102833
  9803.250  9803.250  0.500  5.480248  98.4311  0.410290  0.105518
  9810.363  9810.370  0.500  5.380545  98.8664  0.455311  0.119452
  9817.687  9817.670  0.500  5.345792  98.7146  0.470688  0.125818
  9825.176  9825.150  0.500  5.415887  98.5269  0.437991  0.116864
  9832.815  9832.790  0.500  5.460823  98.3542  0.418011  0.109878
  9840.617  9840.600  0.500  5.444924  98.2184  0.424124  0.111504
  9848.608  9848.590  0.500  5.389070  98.0339  0.447644  0.117646
  9856.759  9856.750  0.500  5.326148  97.8669  0.475904  0.124934
  9865.075  9865.070  0.500  5.266312  97.6812  0.504290  0.132725
  9873.591  9873.570  0.500  5.269202  97.4989  0.501896  0.133185
  9882.265  9882.250  0.500  5.313055  95.5691  0.470855  0.127109
  9891.104  9891.090  0.500  5.352459  97.0831  0.459833  0.125352
  9900.111  9900.100  0.500  5.357954  96.8918  0.456412  0.124575
  9909.313  9909.290  0.500  5.327319  96.6819  0.469591  0.127794
  9918.673  9918.650  0.500  5.307916  96.4785  0.477784  0.130058
  9928.178  9928.170  0.500  5.277019  96.2083  0.491397  0.133923
  9937.895  9937.870  0.500  5.253936  96.1003  0.502307  0.137424
  9947.764  9947.750  0.500  5.236690  95.8478  0.509702  0.139947
  9957.816  9957.790  0.500  5.232995  95.5868  0.510196  0.141140
  9968.013  9968.000  0.500  5.243962  92.4298  0.487964  0.136295
  9978.413  9978.390  0.500  5.232483  95.1921  0.508349  0.142844
  9988.977  9988.950  0.500  5.192548  94.9379  0.527648  0.149045
  9999.707  9999.680  0.500  5.160149  94.0589  0.539978  0.152995
  10010.599  10010.580  0.500  5.156585  94.4701  0.544275  0.154701
  10021.671  10021.650  0.500  5.153430  94.5483  0.546446  0.155623
  10032.917  10032.890  0.500  5.155473  94.1877  0.543251  0.155087
  10044.337  10044.310  0.500  5.152145  94.099  0.544549  0.156326
  10055.902  10055.890  0.500  5.137786  93.8143  0.550753  0.159383
  10067.665  10067.650  0.500  5.114892  93.5576  0.561965  0.163746
  10079.592  10079.580  0.500  5.091463  93.2775  0.573565  0.167889
  10091.689  10091.680  0.500  5.069421  92.8766  0.583828  0.171899
  10103.949  10103.950  0.500  5.055517  92.7118  0.590952  0.174581
  10116.407  10116.390  0.500  5.046823  92.4317  0.594310  0.176257
  10129.021  10129.010  0.500  5.039958  92.1483  0.596570  0.177411
  10141.801  10141.790  0.500  5.023877  91.859  0.604338  0.180702
  10154.769  10154.750  0.500  5.007052  91.5774  0.612708  0.184300
  10167.897  10167.880  0.500  4.991648  91.2734  0.620153  0.187736
  10181.190  10181.180  0.500  4.974208  90.9797  0.629032  0.191445
  10194.671  10194.650  0.500  4.962052  90.4152  0.632775  0.193581
  10208.329  10208.300  0.500  4.954334  90.3504  0.637221  0.196166
  10222.132  10222.110  0.500  4.941792  90.0553  0.643156  0.198963
  10236.110  10236.100  0.500  4.925097  89.7313  0.651630  0.202254
  10250.286  10250.260  0.500  4.906177  89.4306  0.661852  0.206530
  10264.621  10264.590  0.500  4.888990  89.1179  0.670971  0.210477
  10279.120  10279.090  0.500  4.871361  88.8084  0.680533  0.214431
  10293.789  10293.760  0.500  4.857198  88.4691  0.687602  0.217921
  10308.631  10308.600  0.500  4.844817  88.1423  0.693597  0.221135
  10323.645  10323.620  0.500  4.832427  87.8063  0.699567  0.223946
  10338.819  10338.800  0.500  4.817417  87.469  0.707418  0.227444
  10354.178  10354.160  0.500  4.802329  87.1422  0.715490  0.231331
  10369.715  10369.690  0.500  4.786730  86.7745  0.723672  0.235388
  10385.416  10385.390  0.500  4.770848  86.4076  0.732149  0.239137
  10401.287  10401.260  0.500  4.755498  86.0801  0.740655  0.243328
  10417.339  10417.310  0.500  4.741377  85.7351  0.748178  0.246838
  10433.541  10433.520  0.500  4.726693  85.3816  0.756115  0.250838
  10449.931  10449.910  0.500  4.710142  85.0079  0.765369  0.255171
  10466.493  10466.470  0.500  4.694145  84.6573  0.774502  0.259723
  10483.223  10483.200  0.500  4.678148  84.2901  0.783579  0.264086
  10500.117  10500.100  0.500  4.662234  83.9413  0.792854  0.268634
  10511.489  10511.460  0.500  4.652590  83.6433  0.797695  0.270738