Folder: webxdiviewer/xdidata/Zn (part 4)

File: Zn-ZnFerrite.xdi
# XDI/1.0 BlueSky/1.10.0 BMM/2023-1.0-py310-tiled
# Beamline.name: BMM (06BM) -- Beamline for Materials Measurement (NIST)
# Beamline.xray_source: NSLS-II three-pole wiggler
# Beamline.collimation: paraboloid mirror, 5 nm Rh on 30 nm Pt
# Beamline.focusing: not in use
# Beamline.harmonic_rejection: flat mirror, Pt stripe, pitch = 7.0 mrad relative to beam
# Beamline.software: Bluesky 1.10.0, Ophyd 1.7.0, DataBroker 2.0.0b13, Python 3.10.8, 2023-1.0-py310-tiled
# Detector.I0: 10 cm N2
# Detector.I1: 25 cm N2
# Detector.I2: 25 cm N2
# Element.symbol: Zn
# Element.edge: K
# Element.reference: Zn
# Element.reference_material: Zn foil
# Facility.name: NSLS-II
# Facility.energy: 3.0
# Facility.current: 400.0
# Facility.mode: top-off
# Facility.GUP: 123456
# Facility.SAF: 301027
# Facility.cycle: 2023-2
# Mono.name: Si(111)
# Mono.d_spacing: 3.13519
# Mono.encoder_resolution: 0.0000050 deg/ct
# Mono.angle_offset: 16.0754 deg
# Mono.scan_mode: pseudo channel cut
# Mono.scan_type: step
# Mono.direction: forward in energy
# Sample.name: ZnFe2O4
# Sample.prep: powder in PEG pellet
# Sample.x: 116.329 mm
# Sample.y: 114.126 mm
# Sample.SDD_position: 205.000 mm
# Scan.experimenters: Bruce Ravel
# Scan.edge_energy: 9658.6
# Scan.start_time: 2023-05-07T09:05:35
# Scan.end_time: 2023-05-07T09:13:41
# Scan.transient_id: 74860
# Scan.uid: 4b370d7e-7a7f-4a5b-bacc-e2c9a3359a73
# Scan.plot_hint: ln(I0/It)  --  ln($5/$6)
# Column.1: energy eV
# Column.2: requested_energy eV
# Column.3: measurement_time seconds
# Column.4: xmu
# Column.5: I0 nA
# Column.6: It nA
# Column.7: Ir nA
# ///////////
# sample courtesy Martin Stennett, University of Sheffield
# -----------
# energy  requested_energy  measurement_time  xmu  I0  It  Ir
  9458.611  9458.600  0.500  1.312331  86.114  23.1812  12.8039
  9488.633  9488.600  0.500  1.296038  85.0733  23.2772  12.9301
  9518.616  9518.600  0.500  1.279410  84.2072  23.4266  13.0808
  9548.623  9548.600  0.500  1.263166  83.3722  23.5741  13.2324
  9578.655  9578.600  0.500  1.247434  82.4555  23.6846  13.3598
  9608.621  9608.600  0.500  1.232350  81.6204  23.801  13.4867
  9630.595  9630.600  0.500  1.222014  81.007  23.8676  13.5451
  9636.584  9636.600  0.500  1.219611  80.825  23.8713  13.5414
  9642.581  9642.600  0.500  1.217973  80.6286  23.8523  13.5152
  9648.577  9648.600  0.500  1.217423  80.2802  23.7623  13.4135
  9649.458  9649.500  0.500  1.217569  80.2815  23.7592  13.3992
  9650.379  9650.400  0.500  1.217760  80.3133  23.7641  13.3868
  9651.272  9651.300  0.500  1.218077  80.3304  23.7616  13.3652
  9652.182  9652.200  0.500  1.218615  80.264  23.7292  13.3263
  9653.079  9653.100  0.500  1.219360  80.2734  23.7143  13.2906
  9653.981  9654.000  0.500  1.220280  80.2589  23.6882  13.2417
  9654.883  9654.900  0.500  1.221152  80.2252  23.6576  13.177
  9655.785  9655.800  0.500  1.222607  80.2026  23.6166  13.0941
  9656.683  9656.700  0.500  1.224808  80.1832  23.559  12.979
  9657.594  9657.600  0.500  1.227687  80.1464  23.4804  12.8153
  9658.500  9658.500  0.500  1.232183  80.173  23.3829  12.5653
  9659.395  9659.400  0.500  1.239666  80.1294  23.1959  12.0942
  9660.290  9660.300  0.500  1.255472  80.0794  22.8179  11.0871
  9661.189  9661.200  0.500  1.282031  80.0757  22.2188  9.395873
  9662.104  9662.100  0.500  1.313137  80.0542  21.5326  7.771848
  9663.004  9663.000  0.500  1.347851  80.0358  20.7932  6.667218
  9663.891  9663.900  0.500  1.392620  80.0004  19.874  5.864415
  9664.795  9664.800  0.500  1.489607  79.9659  18.0292  5.040984
  9665.695  9665.700  0.500  1.671992  80.154  15.0587  4.066251
  9666.611  9666.600  0.500  1.863801  80.022  12.41  3.217220
  9667.500  9667.500  0.500  1.877251  79.9941  12.2399  3.014283
  9668.396  9668.400  0.500  1.790972  80.1428  13.3677  3.140267
  9669.301  9669.300  0.500  1.770992  80.1321  13.6356  3.077114
  9670.206  9670.200  0.500  1.796850  80.0848  13.2797  2.901889
  9671.106  9671.100  0.500  1.822039  80.0545  12.9445  2.783985
  9672.008  9672.000  0.500  1.806240  80.0297  13.1465  2.866032
  9672.889  9672.900  0.500  1.775413  79.9708  13.5481  3.080243
  9673.798  9673.800  0.500  1.780272  79.9325  13.476  3.220406
  9674.704  9674.700  0.500  1.819515  79.9562  12.9612  3.222765
  9675.598  9675.600  0.500  1.839389  79.8807  12.6942  3.230976
  9676.496  9676.500  0.500  1.810183  79.8375  13.0633  3.366688
  9677.394  9677.400  0.500  1.770988  79.9153  13.5988  3.523386
  9678.304  9678.300  0.500  1.748207  79.7304  13.8799  3.599252
  9679.203  9679.200  0.500  1.730714  79.7756  14.1329  3.673685
  9680.101  9680.100  0.500  1.717162  79.7379  14.3189  3.750475
  9680.996  9681.000  0.500  1.710405  79.7395  14.4163  3.827609
  9681.891  9681.900  0.500  1.694534  79.6251  14.6259  3.945968
  9682.807  9682.800  0.500  1.663516  79.6138  15.0846  4.135016
  9683.605  9683.600  0.500  1.637059  79.584  15.4832  4.287376
  9686.624  9686.610  0.500  1.587352  79.4922  16.2535  4.535177
  9689.807  9689.800  0.500  1.594762  79.3979  16.1143  4.404772
  9693.188  9693.160  0.500  1.575895  79.2401  16.3886  4.314303
  9696.709  9696.680  0.500  1.601165  79.1103  15.9535  4.058812
  9700.403  9700.380  0.500  1.603395  78.9993  15.8956  3.994666
  9704.267  9704.250  0.500  1.594936  78.8678  16.004  4.105285
  9708.309  9708.300  0.500  1.609027  78.6609  15.7386  4.125829
  9712.514  9712.510  0.500  1.625709  78.6906  15.4841  4.052569
  9716.898  9716.890  0.500  1.640730  78.5367  15.2234  3.937864
  9721.461  9721.450  0.500  1.660717  78.4575  14.9071  3.874094
  9726.193  9726.180  0.500  1.687566  78.3267  14.488  3.771293
  9731.088  9731.080  0.500  1.677368  78.1579  14.605  3.766820
  9736.165  9736.150  0.500  1.671800  78.0071  14.6582  3.713526
  9741.391  9741.390  0.500  1.615816  77.9111  15.4832  3.907376
  9746.824  9746.810  0.500  1.583464  77.7401  15.9572  4.125271
  9752.402  9752.390  0.500  1.587950  77.5906  15.8552  4.195622
  9758.160  9758.150  0.500  1.612296  77.3912  15.4341  4.137138
  9764.090  9764.080  0.500  1.623329  77.1911  15.2252  4.107497
  9770.200  9770.180  0.500  1.615509  77.0074  15.3083  4.075291
  9776.463  9776.450  0.500  1.597313  76.9672  15.5812  4.076545
  9782.912  9782.890  0.500  1.580148  76.2144  15.6959  4.037286
  9789.511  9789.500  0.500  1.571502  76.5906  15.9104  4.108017
  9796.267  9796.290  0.500  1.591419  76.7093  15.6208  4.060819
  9803.246  9803.250  0.500  1.618679  75.9142  15.0432  3.956326
  9810.371  9810.370  0.500  1.614410  76.467  15.2175  4.067662
  9817.679  9817.670  0.500  1.592882  76.2652  15.5077  4.220331
  9825.143  9825.150  0.500  1.574387  76.0613  15.7549  4.290872
  9832.794  9832.790  0.500  1.560282  75.9109  15.9471  4.284894
  9840.600  9840.600  0.500  1.566708  75.7072  15.8024  4.238562
  9848.595  9848.590  0.500  1.561288  75.5289  15.8509  4.245305
  9856.754  9856.750  0.500  1.555404  75.333  15.9031  4.248643
  9865.079  9865.070  0.500  1.561012  75.1062  15.7666  4.219306
  9873.574  9873.570  0.500  1.552664  74.916  15.8585  4.284517
  9882.248  9882.250  0.500  1.537029  73.4483  15.7928  4.336830
  9891.099  9891.090  0.500  1.528854  74.4883  16.1479  4.486122
  9900.119  9900.100  0.500  1.535067  74.3158  16.0107  4.454830
  9909.296  9909.290  0.500  1.534123  74.0405  15.9664  4.427984
  9918.656  9918.650  0.500  1.526217  73.6939  16.0178  4.441111
  9928.191  9928.170  0.500  1.520371  73.4812  16.0652  4.460985
  9937.878  9937.870  0.500  1.515987  73.4963  16.1391  4.492115
  9947.777  9947.750  0.500  1.501966  73.2217  16.3059  4.559108
  9957.795  9957.790  0.500  1.493155  72.7857  16.3522  4.605357
  9968.018  9968.000  0.500  1.491081  70.6989  15.9164  4.528380
  9978.400  9978.390  0.500  1.487033  72.3981  16.365  4.684537
  9988.968  9988.950  0.500  1.483321  72.0673  16.3508  4.699210
  9999.702  9999.680  0.500  1.473863  71.0438  16.2718  4.689677
  10010.612  10010.580  0.500  1.463936  71.6055  16.5641  4.786202
  10021.667  10021.650  0.500  1.461292  71.2007  16.514  4.782466
  10032.917  10032.890  0.500  1.454863  70.7416  16.5134  4.797949
  10044.341  10044.310  0.500  1.449259  70.6599  16.587  4.845480
  10055.906  10055.890  0.500  1.443155  70.4639  16.6423  4.897693
  10067.682  10067.650  0.500  1.437549  70.1002  16.6494  4.930316
  10079.597  10079.580  0.500  1.428959  69.7174  16.7014  4.968710
  10091.681  10091.680  0.500  1.420040  69.4744  16.7923  5.020635
  10103.958  10103.950  0.500  1.413525  69.2024  16.8358  5.056873
  10116.407  10116.390  0.500  1.406683  68.7975  16.8523  5.079972
  10129.030  10129.010  0.500  1.400859  68.5137  16.8808  5.107219
  10141.809  10141.790  0.500  1.394745  68.1777  16.901  5.135335
  10154.765  10154.750  0.500  1.386539  67.8801  16.9659  5.183649
  10167.897  10167.880  0.500  1.379226  67.5981  17.0194  5.229361
  10181.195  10181.180  0.500  1.373024  67.2096  17.0269  5.260019
  10194.671  10194.650  0.500  1.365484  66.6413  17.0107  5.282942
  10208.320  10208.300  0.500  1.358150  66.5383  17.1094  5.338539
  10222.137  10222.110  0.500  1.352012  66.2116  17.1302  5.371081
  10236.115  10236.100  0.500  1.344864  65.875  17.1654  5.405606
  10250.277  10250.260  0.500  1.336485  65.4925  17.2093  5.444338
  10264.607  10264.590  0.500  1.328549  65.1918  17.2668  5.489479
  10279.120  10279.090  0.500  1.320886  64.7883  17.2919  5.526205
  10293.785  10293.760  0.500  1.313836  64.4285  17.3175  5.562204
  10308.626  10308.600  0.500  1.306544  64.1006  17.3555  5.603763
  10323.649  10323.620  0.500  1.298999  63.9639  17.4497  5.661468
  10338.814  10338.800  0.500  1.291706  63.5542  17.4648  5.695483
  10354.188  10354.160  0.500  1.284131  63.1958  17.4984  5.733459
  10369.719  10369.690  0.500  1.276158  62.815  17.5322  5.771803
  10385.420  10385.390  0.500  1.268677  62.4325  17.5562  5.809174
  10401.296  10401.260  0.500  1.260923  62.0575  17.5866  5.849170
  10417.330  10417.310  0.500  1.253394  61.6335  17.5985  5.881476
  10433.550  10433.520  0.500  1.245330  61.2481  17.63  5.922550
  10449.941  10449.910  0.500  1.237382  60.8827  17.6647  5.963665
  10466.493  10466.470  0.500  1.229589  60.4533  17.6773  5.999090
  10483.223  10483.200  0.500  1.221528  60.0979  17.7156  6.041697
  10500.122  10500.100  0.500  1.213746  59.6895  17.7327  6.077297
  10511.489  10511.460  0.500  1.208511  59.3984  17.7388  6.100441

File: Zn-Znfoil.xdi
# XDI/1.0 BlueSky/1.10.0 BMM/2023-1.0-py310-tiled
# Beamline.name: BMM (06BM) -- Beamline for Materials Measurement (NIST)
# Beamline.xray_source: NSLS-II three-pole wiggler
# Beamline.collimation: paraboloid mirror, 5 nm Rh on 30 nm Pt
# Beamline.focusing: not in use
# Beamline.harmonic_rejection: flat mirror, Pt stripe, pitch = 7.0 mrad relative to beam
# Beamline.software: Bluesky 1.10.0, Ophyd 1.7.0, DataBroker 2.0.0b13, Python 3.10.8, 2023-1.0-py310-tiled
# Detector.I0: 10 cm N2
# Detector.I1: 25 cm N2
# Detector.I2: 25 cm N2
# Element.symbol: Zn
# Element.edge: K
# Element.reference: Zn
# Element.reference_material: Zn foil
# Facility.name: NSLS-II
# Facility.energy: 3.0
# Facility.current: 398.6
# Facility.mode: top-off
# Facility.GUP: 123456
# Facility.SAF: 301027
# Facility.cycle: 2023-2
# Mono.name: Si(111)
# Mono.d_spacing: 3.13519
# Mono.encoder_resolution: 0.0000050 deg/ct
# Mono.angle_offset: 16.0754 deg
# Mono.scan_mode: pseudo channel cut
# Mono.scan_type: step
# Mono.direction: forward in energy
# Sample.name: Zn metal
# Sample.prep: reference metal
# Sample.x: 116.329 mm
# Sample.y: 114.126 mm
# Sample.SDD_position: 205.000 mm
# Scan.experimenters: Bruce Ravel
# Scan.edge_energy: 9658.6
# Scan.start_time: 2023-05-07T08:48:26
# Scan.end_time: 2023-05-07T08:56:18
# Scan.transient_id: 74850
# Scan.uid: 65de7d81-53ef-489d-9cd7-321bdd96a004
# Scan.plot_hint: ln(It/Ir)  --  ln($6/$7)
# Column.1: energy eV
# Column.2: requested_energy eV
# Column.3: measurement_time seconds
# Column.4: xmu
# Column.5: I0 nA
# Column.6: It nA
# Column.7: Ir nA
# ///////////
# reference foil
# -----------
# energy  requested_energy  measurement_time  xmu  I0  It  Ir
  9458.615  9458.600  0.500  0.592883  83.1212  108.851  60.1653
  9488.614  9488.600  0.500  0.587334  82.1625  107.995  60.0246
  9518.604  9518.600  0.500  0.581951  81.4175  107.412  60.0223
  9548.698  9548.600  0.500  0.576704  80.5616  106.685  59.9298
  9578.635  9578.600  0.500  0.571755  79.7326  105.985  59.832
  9608.621  9608.600  0.500  0.567399  78.9316  105.308  59.7097
  9630.595  9630.600  0.500  0.565724  78.3468  104.782  59.5107
  9636.580  9636.600  0.500  0.566166  78.1809  104.636  59.4015
  9642.581  9642.600  0.500  0.567438  78.176  104.707  59.3663
  9648.573  9648.600  0.500  0.571130  77.854  104.344  58.9428
  9649.462  9649.500  0.500  0.572030  77.8682  104.373  58.9061
  9650.367  9650.400  0.500  0.573207  78.1009  104.703  59.0224
  9651.272  9651.300  0.500  0.574564  78.0582  104.659  58.9178
  9652.190  9652.200  0.500  0.576376  78.2156  104.871  58.9305
  9653.091  9653.100  0.500  0.578318  78.1982  104.855  58.8069
  9653.981  9654.000  0.500  0.581044  78.1333  104.778  58.6041
  9654.883  9654.900  0.500  0.584528  78.1498  104.82  58.4236
  9655.789  9655.800  0.500  0.589250  78.1895  104.896  58.1905
  9656.683  9656.700  0.500  0.595572  78.116  104.788  57.7638
  9657.586  9657.600  0.500  0.604860  78.1237  104.814  57.2443
  9658.492  9658.500  0.500  0.620348  78.1134  104.822  56.3687
  9659.391  9659.400  0.500  0.650406  78.1403  104.874  54.7268
  9660.298  9660.300  0.500  0.723353  78.1232  104.875  50.8773
  9661.197  9661.200  0.500  0.864047  78.1094  104.886  44.2046
  9662.092  9662.100  0.500  1.019175  78.0707  104.861  37.8437
  9662.992  9663.000  0.500  1.136607  77.9391  104.705  33.6006
  9663.895  9663.900  0.500  1.221736  78.0146  104.828  30.8947
  9664.799  9664.800  0.500  1.276109  77.992  104.809  29.2544
  9665.699  9665.700  0.500  1.311559  77.9053  104.703  28.2069
  9666.603  9666.600  0.500  1.350884  77.7137  104.46  27.0562
  9667.500  9667.500  0.500  1.399395  77.7663  104.546  25.7963
  9668.400  9668.400  0.500  1.447163  77.8755  104.707  24.631
  9669.284  9669.300  0.500  1.487905  77.7528  104.553  23.6127
  9670.193  9670.200  0.500  1.520384  77.7457  104.542  22.8558
  9671.102  9671.100  0.500  1.536345  77.6314  104.414  22.4664
  9672.008  9672.000  0.500  1.522554  77.6011  104.381  22.7712
  9672.901  9672.900  0.500  1.479684  77.6128  104.411  23.7754
  9673.798  9673.800  0.500  1.429751  77.5218  104.296  24.9652
  9674.704  9674.700  0.500  1.390677  77.4859  104.242  25.9465
  9675.606  9675.600  0.500  1.367535  77.4166  104.18  26.5382
  9676.504  9676.500  0.500  1.355318  77.3987  104.15  26.8567
  9677.402  9677.400  0.500  1.350057  77.3325  104.063  26.9758
  9678.296  9678.300  0.500  1.348860  77.3207  104.065  27.0086
  9679.199  9679.200  0.500  1.346794  77.2696  104.016  27.0518
  9680.114  9680.100  0.500  1.338858  77.2481  103.995  27.2617
  9681.000  9681.000  0.500  1.325242  77.2568  104.005  27.6382
  9681.895  9681.900  0.500  1.309071  77.332  104.118  28.1193
  9682.794  9682.800  0.500  1.293606  77.3334  104.123  28.5588
  9683.601  9683.600  0.500  1.283712  77.3762  104.196  28.8631
  9686.624  9686.610  0.500  1.275967  77.3259  104.173  29.0809
  9689.803  9689.800  0.500  1.296314  77.3125  104.176  28.4962
  9693.175  9693.160  0.500  1.334004  77.2277  104.121  27.4277
  9696.700  9696.680  0.500  1.368297  77.2331  104.182  26.5185
  9700.403  9700.380  0.500  1.380218  77.1392  104.096  26.1827
  9704.271  9704.250  0.500  1.359720  77.0964  104.057  26.715
  9708.309  9708.300  0.500  1.338206  76.9568  103.921  27.2601
  9712.514  9712.510  0.500  1.339797  77.0205  104.07  27.2558
  9716.894  9716.890  0.500  1.351604  76.9144  103.992  26.9157
  9721.461  9721.450  0.500  1.346824  76.8498  103.955  27.035
  9726.188  9726.180  0.500  1.345279  76.7456  103.872  27.0552
  9731.092  9731.080  0.500  1.354544  76.6164  103.747  26.7736
  9736.153  9736.150  0.500  1.372266  76.5196  103.684  26.2872
  9741.391  9741.390  0.500  1.376421  76.4409  103.639  26.1669
  9746.815  9746.810  0.500  1.352043  76.2884  103.493  26.7749
  9752.402  9752.390  0.500  1.328797  76.1387  103.357  27.3685
  9758.177  9758.150  0.500  1.315825  75.9838  103.19  27.6811
  9764.090  9764.080  0.500  1.309591  75.8468  103.088  27.8267
  9770.205  9770.180  0.500  1.322827  75.5962  102.83  27.392
  9776.467  9776.450  0.500  1.340511  75.5852  102.864  26.9208
  9782.916  9782.890  0.500  1.357250  74.9107  102.026  26.2581
  9789.490  9789.500  0.500  1.353461  75.1494  102.434  26.4633
  9796.330  9796.290  0.500  1.346591  74.9745  102.256  26.5994
  9803.246  9803.250  0.500  1.334978  74.0912  101.137  26.6156
  9810.371  9810.370  0.500  1.318796  74.3804  101.617  27.1781
  9817.670  9817.670  0.500  1.300670  74.4153  101.749  27.7112
  9825.151  9825.150  0.500  1.299903  74.2356  101.584  27.6876
  9832.790  9832.790  0.500  1.313490  73.9533  101.284  27.2333
  9840.600  9840.600  0.500  1.315373  73.7199  101.044  27.1176
  9848.591  9848.590  0.500  1.316679  73.5069  100.848  27.0298
  9856.759  9856.750  0.500  1.319001  73.3436  100.719  26.9324
  9865.066  9865.070  0.500  1.317514  73.1302  100.518  26.9187
  9873.582  9873.570  0.500  1.307760  72.8413  100.187  27.093
  9882.248  9882.250  0.500  1.291794  71.3982  98.3219  27.0166
  9891.099  9891.090  0.500  1.279984  72.382  99.7557  27.7362
  9900.123  9900.100  0.500  1.278788  72.137  99.5241  27.705
  9909.287  9909.290  0.500  1.282023  71.8885  99.2714  27.5454
  9918.664  9918.650  0.500  1.282053  71.621  99.0012  27.4696
  9928.191  9928.170  0.500  1.280654  71.3215  98.6879  27.421
  9937.882  9937.870  0.500  1.278147  71.2586  98.697  27.4923
  9947.777  9947.750  0.500  1.273857  71.0095  98.4519  27.542
  9957.799  9957.790  0.500  1.266871  70.9244  98.4401  27.7317
  9968.022  9968.000  0.500  1.256603  68.8947  95.7073  27.2401
  9978.413  9978.390  0.500  1.250166  70.4727  98.0156  28.0773
  9988.964  9988.950  0.500  1.246356  70.2905  97.8747  28.1439
  9999.702  9999.680  0.500  1.243635  69.3295  96.6366  27.8636
  10010.590  10010.580  0.500  1.241019  69.7882  97.3837  28.1526
  10021.671  10021.650  0.500  1.238493  69.3699  96.9003  28.0837
  10032.917  10032.890  0.500  1.235300  68.9554  96.4406  28.0399
  10044.324  10044.310  0.500  1.229971  68.9469  96.5323  28.2165
  10055.911  10055.890  0.500  1.222803  68.6386  96.214  28.3258
  10067.660  10067.650  0.500  1.216492  68.3864  95.9823  28.4365
  10079.601  10079.580  0.500  1.211609  68.0768  95.6529  28.4776
  10091.694  10091.680  0.500  1.206690  67.7911  95.3707  28.5336
  10103.980  10103.950  0.500  1.202351  67.477  95.0379  28.5576
  10116.416  10116.390  0.500  1.198620  67.1817  94.7424  28.5753
  10129.025  10129.010  0.500  1.194938  66.8473  94.3899  28.574
  10141.814  10141.790  0.500  1.190406  66.5443  94.0663  28.6053
  10154.774  10154.750  0.500  1.185125  66.2575  93.7847  28.6707
  10167.893  10167.880  0.500  1.179476  65.916  93.3997  28.7148
  10181.190  10181.180  0.500  1.174104  65.65  93.1573  28.7945
  10194.671  10194.650  0.500  1.168999  65.0348  92.4024  28.7074
  10208.315  10208.300  0.500  1.164161  64.929  92.3741  28.8378
  10222.128  10222.110  0.500  1.159479  64.5853  91.9957  28.8544
  10236.128  10236.100  0.500  1.154936  64.2475  91.6342  28.8719
  10250.286  10250.260  0.500  1.150356  63.898  91.2626  28.8868
  10264.603  10264.590  0.500  1.145569  63.5863  90.936  28.9215
  10279.120  10279.090  0.500  1.140384  63.2007  90.5043  28.9339
  10293.799  10293.760  0.500  1.135260  62.7999  90.0565  28.9386
  10308.621  10308.600  0.500  1.130088  62.4761  89.7026  28.9744
  10323.654  10323.620  0.500  1.124993  62.1505  89.3595  29.011
  10338.824  10338.800  0.500  1.120000  61.7503  88.9016  29.0068
  10354.183  10354.160  0.500  1.115265  61.4262  88.5545  29.0307
  10369.719  10369.690  0.500  1.110278  60.9705  88.0156  28.9983
  10385.420  10385.390  0.500  1.105555  60.6035  87.6072  29.0004
  10401.291  10401.260  0.500  1.100502  60.2444  87.2232  29.0195
  10417.344  10417.310  0.500  1.095486  59.7177  86.5749  28.9487
  10433.550  10433.520  0.500  1.090356  59.4451  86.2964  29.0039
  10449.941  10449.910  0.500  1.085323  59.1398  85.9754  29.0418
  10466.498  10466.470  0.500  1.080218  58.6284  85.3508  28.9784
  10483.237  10483.200  0.500  1.075148  58.3178  85.0277  29.0155
  10500.136  10500.100  0.500  1.070179  57.9469  84.6  29.0133
  10511.494  10511.460  0.500  1.066796  57.6261  84.2005  28.9742