Folder: webxdiviewer/xdidata/Zr

Note: xdidata/README.md
# bmm-standards
A pretty webpage for BMM's collection of common XAFS materials

[BMM's common materials collection](./BMM-standards.html)

Plotting of the data will happen soon.

Periodic table adapted from [some guy named Daniel](https://codepen.io/gooseofmusic/pen/PjKdNQ)

[This](https://www.coderstool.com/scss-to-css) is a helpful tool for
dealing with Sassy CSS.

File: La-L3-LaPO4.xdi
# XDI/1.0 BlueSky/1.5.3
# Beamline.name: 6BM
# Beamline.xray_source: NSLS-II three-pole wiggler
# Beamline.collimation: paraboloid mirror, 5 nm Rh on 30 nm Pt
# Beamline.focusing: not in use
# Beamline.harmonic_rejection: flat mirror, Si stripe, pitch = 7.0 mrad relative to beam
# Detector.i0: 10 cm N2
# Detector.I1: 25 cm N2
# Detector.I2: 25 cm N2
# Element.symbol: La
# Element.edge: L3
# Facility.name: NSLS-II
# Facility.energy: 3.0
# Facility.current: 400.3
# Facility.mode: top-off
# Facility.GUP: 305832
# Facility.SAF: 305669
# Facility.cycle: 2020-1
# Mono.name: Si(111)
# Mono.d_spacing: 3.13532
# Mono.encoder_resolution: 0.0000050 deg/ct
# Mono.angle_offset: 16.0581 deg
# Mono.scan_mode: fixed exit
# Mono.scan_type: step
# Mono.direction: forward in energy
# Sample.name: LaPO4
# Sample.prep: Powder in polyethylene glycol pellet
# Sample.x_position: -3.945 mm
# Sample.y_position: 103.894 mm
# Scan.experimenters: Neil Hyatt, Martin Stennett, Dan Austin, Seb Lawson
# Scan.edge_energy: 5482.7
# Scan.start_time: 2020-03-03T02:52:05
# Scan.end_time: 2020-03-03T03:02:09
# Scan.transient_id: 22550
# Scan.uid: 9260ce99-9059-4f0b-97ac-93412e05e14e
# Scan.plot_hint: (DTC1 + DTC2 + DTC3 + DTC4) / i0  --  ($8+$9+$10+$11) / $5
# Column.1: energy eV
# Column.2: requested_energy eV
# Column.3: measurement_time seconds
# Column.4: mutrans
# Column.5: i0
# Column.6: itrans
# Column.7: irefer
# ///////////
#
# -----------
#  energy  requested_energy  measurement_time  mutrans  i0  itrans  irefer
5282.698  5282.700  1.000  0.018766  55.6729  0.554172  0.084576
5312.710  5312.700  1.000  0.000000  56.4903  0.614170  0.098272
5342.706  5342.700  1.000  0.036854  56.9376  0.672901  0.104478
5372.703  5372.700  1.000  0.000000  57.7501  0.742115  0.119790
5402.695  5402.700  1.000  0.017721  58.5993  0.816605  0.133347
5432.701  5432.700  1.000  0.059923  59.3351  0.892986  0.150487
5454.696  5454.700  1.000  0.018938  59.8449  0.947444  0.162802
5460.694  5460.700  1.000  0.000000  59.946  0.959115  0.163556
5466.694  5466.700  1.000  0.000000  59.9971  0.963504  0.128390
5472.705  5472.700  1.000  0.033307  60.0473  0.957144  0.105814
5473.444  5473.450  1.000  0.022206  60.0451  0.955021  0.099227
5474.192  5474.200  1.000  0.035346  60.0508  0.951495  0.095662
5474.945  5474.950  1.000  0.000000  60.0167  0.946373  0.089267
5475.697  5475.700  1.000  0.035358  59.9958  0.941148  0.087973
5476.448  5476.450  1.000  0.000000  60.0064  0.935242  0.085538
5477.197  5477.200  1.000  0.000000  59.9841  0.926892  0.079600
5477.951  5477.950  1.000  0.017028  59.9888  0.916332  0.080343
5478.700  5478.700  1.000  0.000000  59.959  0.903910  0.073006
5479.449  5479.450  1.000  0.027802  59.9476  0.888520  0.069899
5480.203  5480.200  1.000  0.017269  59.9265  0.869009  0.068528
5480.949  5480.950  1.000  0.000000  59.9289  0.844603  0.064279
5481.701  5481.700  1.000  0.000000  60.1079  0.813695  0.059910
5482.453  5482.450  1.000  0.000000  60.1036  0.768839  0.056602
5483.200  5483.200  1.000  0.017053  60.0875  0.718490  0.052276
5483.951  5483.950  1.000  0.027736  60.0902  0.668984  0.047581
5484.701  5484.700  1.000  0.017004  60.0604  0.611129  0.047344
5485.450  5485.450  1.000  0.035583  60.0252  0.529366  0.043701
5486.199  5486.200  1.000  0.029613  60.0336  0.423002  0.036707
5486.951  5486.950  1.000  0.034642  60.0132  0.296297  0.027717
5487.700  5487.700  1.000  0.017012  59.9938  0.173203  0.018842
5488.450  5488.450  1.000  0.017209  59.9839  0.090429  0.014379
5489.204  5489.200  1.000  0.052738  59.957  0.052667  0.009927
5489.951  5489.950  1.000  0.000000  59.9286  0.045044  0.010944
5490.703  5490.700  1.000  0.020391  59.9403  0.059081  0.011255
5491.454  5491.450  1.000  0.000000  59.9216  0.095556  0.014792
5492.199  5492.200  1.000  0.053177  59.8788  0.144783  0.017185
5492.956  5492.950  1.000  0.017377  59.8957  0.199041  0.023267
5493.703  5493.700  1.000  0.073684  59.8674  0.248749  0.025511
5494.451  5494.450  1.000  0.043502  59.8395  0.292558  0.029242
5495.203  5495.200  1.000  0.017829  59.8283  0.328323  0.029837
5495.949  5495.950  1.000  0.000000  59.7967  0.357728  0.030953
5496.701  5496.700  1.000  0.000000  59.7919  0.385493  0.033821
5497.454  5497.450  1.000  0.034141  59.7646  0.406957  0.035243
5498.198  5498.200  1.000  0.035288  59.7468  0.419776  0.037075
5498.952  5498.950  1.000  0.000000  59.7313  0.425598  0.034090
5499.703  5499.700  1.000  0.053380  59.6827  0.427458  0.035847
5500.448  5500.450  1.000  0.044791  59.6784  0.430081  0.036704
5501.200  5501.200  1.000  0.000000  59.6357  0.434162  0.036129
5501.952  5501.950  1.000  0.017357  59.6224  0.437262  0.037355
5502.700  5502.700  1.000  0.017689  59.6046  0.441289  0.038163
5503.452  5503.450  1.000  0.017358  59.5509  0.445273  0.035281
5504.202  5504.200  1.000  0.000000  59.7337  0.450677  0.035147
5504.950  5504.950  1.000  0.000000  59.7193  0.453900  0.039893
5505.705  5505.700  1.000  0.091995  59.6817  0.454239  0.037776
5506.448  5506.450  1.000  0.063226  59.6705  0.454040  0.037477
5507.202  5507.200  1.000  0.080794  59.6326  0.450538  0.035009
5507.955  5507.950  1.000  0.000000  59.6109  0.444718  0.038301
5508.701  5508.700  1.000  0.050998  59.5904  0.438303  0.037165
5509.451  5509.450  1.000  0.035324  59.5447  0.431352  0.039833
5510.202  5510.200  1.000  0.063462  59.5286  0.424544  0.034479
5510.949  5510.950  1.000  0.017507  59.5009  0.416889  0.034164
5511.702  5511.700  1.000  0.053052  59.449  0.410284  0.029926
5512.454  5512.450  1.000  0.000000  59.419  0.402637  0.033485
5514.883  5514.880  1.000  0.000000  59.3218  0.379473  0.031656
5518.287  5518.280  1.000  0.035373  59.1887  0.355534  0.036054
5521.865  5521.860  1.000  0.102653  59.0146  0.345519  0.030664
5525.614  5525.610  1.000  0.052561  58.8235  0.367695  0.039245
5529.532  5529.530  1.000  0.017778  58.5932  0.399920  0.038393
5533.636  5533.630  1.000  0.036373  58.3652  0.421809  0.039085
5537.896  5537.890  1.000  0.035265  58.1076  0.436905  0.037114
5542.335  5542.330  1.000  0.035655  57.8105  0.440043  0.038618
5546.945  5546.940  1.000  0.038477  57.4917  0.433187  0.039503
5551.716  5551.710  1.000  0.054471  57.1735  0.424978  0.039639
5556.676  5556.670  1.000  0.027208  56.8014  0.418474  0.039987
5561.794  5561.790  1.000  0.000000  56.3947  0.413128  0.033761
5567.084  5567.080  1.000  0.018255  55.9716  0.408171  0.031087
5572.551  5572.540  1.000  0.037223  55.5617  0.415040  0.036445
5578.187  5578.180  1.000  0.000000  55.1188  0.421431  0.038499
5583.997  5583.990  1.000  0.060003  54.6613  0.428000  0.040867
5589.976  5589.970  1.000  0.065590  54.3628  0.437021  0.041274
5596.136  5596.120  1.000  0.021036  53.8762  0.443325  0.044093
5602.452  5602.440  1.000  0.067264  53.3703  0.443344  0.040655
5608.918  5608.930  1.000  0.051766  52.8359  0.434265  0.038230
5615.593  5615.600  1.000  0.000000  52.3618  0.438722  0.041784
5622.433  5622.440  1.000  0.022518  51.8107  0.444413  0.040985
5629.434  5629.440  1.000  0.077326  51.2797  0.443236  0.041900
5636.620  5636.620  1.000  0.115053  50.8331  0.444042  0.043609
5643.972  5643.970  1.000  0.021197  50.0942  0.450901  0.044564
5651.501  5651.490  1.000  0.051058  49.529  0.459574  0.045113
5659.201  5659.190  1.000  0.047722  49.3048  0.467632  0.048627
5667.045  5667.050  1.000  0.000000  49.0821  0.473781  0.047600
5675.088  5675.090  1.000  0.023374  48.8937  0.480533  0.049828
5683.294  5683.300  1.000  0.021374  48.6563  0.484211  0.049318
5691.678  5691.680  1.000  0.033523  48.4735  0.490782  0.047704
5700.222  5700.230  1.000  0.042233  48.303  0.498977  0.047706
5708.957  5708.950  1.000  0.033982  48.1539  0.507945  0.049588
5717.835  5717.840  1.000  0.042787  48.0063  0.517612  0.052516
5726.898  5726.910  1.000  0.063846  47.8272  0.527045  0.055864
5736.137  5736.150  1.000  0.064648  47.7061  0.536975  0.055635
5745.547  5745.550  1.000  0.000000  47.5565  0.548035  0.058971
5755.117  5755.130  1.000  0.022829  47.4537  0.561506  0.060412
5764.873  5764.880  1.000  0.000000  47.3455  0.573014  0.062878
5774.800  5774.810  1.000  0.043280  47.2044  0.584444  0.063616
5784.889  5784.900  1.000  0.067252  47.0642  0.594787  0.063799
5795.159  5795.170  1.000  0.076900  46.8917  0.606685  0.066032
5805.586  5805.600  1.000  0.022806  46.7722  0.620984  0.067811
5816.198  5816.210  1.000  0.044678  46.5746  0.635335  0.070920
5826.979  5826.990  1.000  0.119763  46.388  0.648957  0.074534
5837.933  5837.940  1.000  0.103570  46.3453  0.664402  0.077131
5849.056  5849.060  1.000  0.113506  46.0944  0.677154  0.077474
5860.348  5860.360  1.000  0.065556  45.7621  0.692615  0.081490
5871.807  5871.820  1.000  0.163263  35.4744  0.551258  0.066166
5883.448  5883.460  1.000  0.044825  45.7335  0.718928  0.083929
5895.258  5895.270  1.000  0.045691  45.3125  0.314240  0.041162
5907.250  5907.250  1.000  0.080165  44.8404  0.512593  0.064319
5919.397  5919.400  1.000  0.028497  35.7239  0.404247  0.050767
5931.725  5931.720  1.000  0.025937  39.4318  0.425699  0.056774
5940.031  5940.030  1.000  0.023532  43.5949  0.512691  0.064278

File: Zr-K-BaZrO3.xdi
# XDI/1.0 BlueSky/1.5.3
# Beamline.name: 6BM
# Beamline.xray_source: NSLS-II three-pole wiggler
# Beamline.collimation: paraboloid mirror, 5 nm Rh on 30 nm Pt
# Beamline.focusing: not in use
# Beamline.harmonic_rejection: flat mirror, Pt stripe, pitch = 7.0 mrad relative to beam
# Detector.i0: 10 cm N2
# Detector.I1: 25 cm N2
# Detector.I2: 25 cm N2
# Element.symbol: Zr
# Element.edge: K
# Facility.name: NSLS-II
# Facility.energy: 3.0
# Facility.current: 400.7
# Facility.mode: top-off
# Facility.GUP: 305832
# Facility.SAF: 305669
# Facility.cycle: 2020-1
# Mono.name: Si(111)
# Mono.d_spacing: 3.13532
# Mono.encoder_resolution: 0.0000050 deg/ct
# Mono.angle_offset: 16.0581 deg
# Mono.scan_mode: fixed exit
# Mono.scan_type: step
# Mono.direction: forward in energy
# Sample.name: BaZrO3
# Sample.prep: Powder in polyethylene glycol pellet
# Sample.x_position: -5.367 mm
# Sample.y_position: 103.555 mm
# Scan.experimenters: Neil Hyatt, Martin Stennett, Dan Austin, Seb Lawson
# Scan.edge_energy: 17997.6
# Scan.start_time: 2020-03-05T03:42:05
# Scan.end_time: 2020-03-05T03:53:17
# Scan.transient_id: 22977
# Scan.uid: 6d06f44f-7129-4aa3-aa5b-17fbd3e0c216
# Scan.plot_hint: ln(i0/itrans)  --  ln($5/$6)
# Column.1: energy eV
# Column.2: requested_energy eV
# Column.3: measurement_time seconds
# Column.4: mutrans
# Column.5: i0
# Column.6: itrans
# Column.7: irefer
# ///////////
#
# -----------
#  energy  requested_energy  measurement_time  mutrans  i0  itrans  irefer
17797.585  17797.600  1.000  0.323957  9.138883  6.609981  5.182660
17827.688  17827.600  1.000  0.319647  9.062864  6.583312  5.166031
17857.768  17857.600  1.000  0.315428  8.982063  6.552205  5.145043
17887.641  17887.600  1.000  0.312271  8.861396  6.484622  5.096563
17917.728  17917.600  1.000  0.309759  8.829187  6.477303  5.086213
17947.691  17947.600  1.000  0.310006  8.751147  6.418466  5.021225
17969.507  17969.600  1.000  0.315829  8.651093  6.308239  4.897022
17975.544  17975.600  1.000  0.320169  8.683318  6.304319  4.867062
17981.541  17981.600  1.000  0.327018  8.662386  6.246194  4.779605
17987.543  17987.600  1.000  0.339174  8.648046  6.160506  4.621925
17988.239  17988.350  1.000  0.341181  8.647004  6.147418  4.593679
17989.020  17989.100  1.000  0.344210  8.648697  6.130023  4.552343
17989.815  17989.850  1.000  0.346994  8.638283  6.105620  4.505144
17990.553  17990.600  1.000  0.350194  8.638237  6.086084  4.457292
17991.306  17991.350  1.000  0.353505  8.633451  6.062606  4.393685
17992.072  17992.100  1.000  0.357934  8.629053  6.032740  4.316050
17992.811  17992.850  1.000  0.362651  8.628597  6.004028  4.234367
17993.564  17993.600  1.000  0.368395  8.629198  5.970055  4.109290
17994.359  17994.350  1.000  0.375150  8.621530  5.924596  3.946004
17995.112  17995.100  1.000  0.383213  8.616532  5.873613  3.750504
17995.836  17995.850  1.000  0.392889  8.612815  5.814540  3.519261
17996.604  17996.600  1.000  0.405538  8.609839  5.739472  3.267957
17997.328  17997.350  1.000  0.421464  8.609957  5.648872  3.034339
17998.081  17998.100  1.000  0.443534  8.603672  5.521532  2.805178
17998.863  17998.850  1.000  0.471710  8.598033  5.364609  2.609513
17999.616  17999.600  1.000  0.506590  8.598481  5.180985  2.453021
18000.355  18000.350  1.000  0.544039  8.628259  5.007838  2.334045
18001.095  18001.100  1.000  0.585306  8.628352  4.805433  2.201583
18001.862  18001.850  1.000  0.626176  8.625984  4.611730  2.059713
18002.587  18002.600  1.000  0.660843  8.623799  4.453465  1.930781
18003.341  18003.350  1.000  0.693602  8.621462  4.308770  1.792705
18004.123  18004.100  1.000  0.724520  8.619694  4.176734  1.643996
18004.862  18004.850  1.000  0.755085  8.616246  4.049382  1.510569
18005.602  18005.600  1.000  0.789817  8.611913  3.909186  1.372901
18006.370  18006.350  1.000  0.834451  8.607895  3.736796  1.225571
18007.081  18007.100  1.000  0.884286  8.600628  3.552136  1.092016
18007.835  18007.850  1.000  0.945450  8.600367  3.341281  0.965263
18008.603  18008.600  1.000  1.018432  8.599866  3.105935  0.847001
18009.343  18009.350  1.000  1.100575  8.593275  2.858808  0.741647
18010.083  18010.100  1.000  1.192229  8.594756  2.608885  0.653540
18010.852  18010.850  1.000  1.298935  8.591810  2.344038  0.571289
18011.592  18011.600  1.000  1.417754  8.588043  2.080519  0.498028
18012.317  18012.350  1.000  1.543452  8.590227  1.835237  0.440161
18013.086  18013.100  1.000  1.680668  8.582916  1.598563  0.385029
18013.855  18013.850  1.000  1.818083  8.581076  1.393023  0.340608
18014.581  18014.600  1.000  1.934748  8.580246  1.239508  0.307607
18015.321  18015.350  1.000  2.031110  8.570810  1.124404  0.284442
18016.104  18016.100  1.000  2.101383  8.569440  1.047933  0.268646
18016.816  18016.850  1.000  2.141745  8.565581  1.006025  0.259502
18017.571  18017.600  1.000  2.163952  8.562347  0.983559  0.254280
18018.340  18018.350  1.000  2.173947  8.561404  0.973670  0.250289
18019.095  18019.100  1.000  2.178989  8.559048  0.968507  0.249480
18019.836  18019.850  1.000  2.182310  8.554883  0.964826  0.250295
18020.619  18020.600  1.000  2.183710  8.554110  0.963389  0.248557
18021.360  18021.350  1.000  2.181419  8.547609  0.964865  0.248353
18022.087  18022.100  1.000  2.175516  8.541103  0.969838  0.249192
18022.842  18022.850  1.000  2.165312  8.575378  0.983717  0.249113
18023.626  18023.600  1.000  2.150654  8.568368  0.997427  0.249665
18024.367  18024.350  1.000  2.134544  8.566584  1.013414  0.249991
18025.079  18025.100  1.000  2.116536  8.564221  1.031544  0.250182
18025.849  18025.850  1.000  2.098082  8.557494  1.049932  0.252601
18026.590  18026.600  1.000  2.078827  8.554572  1.069979  0.255805
18027.360  18027.350  1.000  2.057057  8.555014  1.093584  0.259075
18029.799  18029.780  1.000  1.977860  8.546114  1.182483  0.278211
18033.236  18033.180  1.000  1.860872  8.528685  1.326525  0.327494
18036.761  18036.760  1.000  1.790794  8.484493  1.415448  0.366054
18040.529  18040.510  1.000  1.739268  8.512861  1.495275  0.387294
18044.414  18044.430  1.000  1.683903  8.505500  1.579029  0.412914
18048.543  18048.530  1.000  1.621414  8.491102  1.678004  0.441991
18052.831  18052.790  1.000  1.599748  8.482334  1.712986  0.441724
18057.264  18057.230  1.000  1.614526  8.466418  1.684689  0.418696
18061.857  18061.840  1.000  1.676288  8.460326  1.582649  0.393608
18066.624  18066.610  1.000  1.745630  8.444727  1.473900  0.380409
18071.537  18071.570  1.000  1.784268  8.432215  1.415938  0.372614
18076.682  18076.690  1.000  1.814239  8.416492  1.371567  0.363305
18082.003  18081.980  1.000  1.817314  8.391147  1.363238  0.361108
18087.484  18087.440  1.000  1.791828  8.368824  1.394709  0.362654
18093.083  18093.080  1.000  1.756830  8.374353  1.445339  0.370418
18098.887  18098.890  1.000  1.730652  8.354859  1.480221  0.383890
18104.896  18104.870  1.000  1.708698  8.319821  1.506731  0.403721
18111.024  18111.020  1.000  1.692219  8.325036  1.532727  0.413983
18117.359  18117.340  1.000  1.683575  8.297775  1.540970  0.413000
18123.884  18123.830  1.000  1.669432  8.280522  1.559669  0.412371
18130.516  18130.500  1.000  1.656103  8.266658  1.577951  0.417078
18137.311  18137.340  1.000  1.666533  8.260760  1.560464  0.411527
18144.371  18144.340  1.000  1.686283  8.240552  1.526205  0.409904
18151.553  18151.520  1.000  1.700072  8.246286  1.506353  0.413303
18158.885  18158.870  1.000  1.697283  8.231937  1.507931  0.418714
18166.396  18166.390  1.000  1.688003  8.211516  1.518214  0.420470
18174.131  18174.090  1.000  1.674870  8.194096  1.535021  0.419353
18181.946  18181.950  1.000  1.664093  8.164005  1.545955  0.417063
18190.014  18189.990  1.000  1.653708  8.153978  1.560175  0.423686
18198.249  18198.200  1.000  1.648364  8.129378  1.563803  0.426785
18206.593  18206.580  1.000  1.650762  8.111244  1.556577  0.433343
18215.163  18215.130  1.000  1.643769  8.089220  1.563244  0.439096
18223.873  18223.850  1.000  1.642087  8.012086  1.550945  0.436317
18232.766  18232.740  1.000  1.639884  8.040871  1.559949  0.434864
18241.857  18241.810  1.000  1.633991  8.020921  1.565277  0.428310
18251.075  18251.050  1.000  1.632903  7.987627  1.560475  0.424716
18260.492  18260.450  1.000  1.633523  7.970345  1.556134  0.432399
18270.050  18270.030  1.000  1.633788  7.944148  1.550609  0.435147
18279.810  18279.780  1.000  1.634958  7.712429  1.503620  0.424660
18289.726  18289.710  1.000  1.628045  7.891930  1.549288  0.439423
18299.771  18299.800  1.000  1.618264  7.875461  1.561252  0.444082
18310.122  18310.070  1.000  1.611324  7.842842  1.565613  0.441346
18320.499  18320.500  1.000  1.606417  7.826564  1.570048  0.440590
18331.153  18331.110  1.000  1.599549  7.801104  1.575726  0.442664
18341.908  18341.890  1.000  1.598126  7.775591  1.572810  0.448095
18352.897  18352.840  1.000  1.597286  7.750564  1.569065  0.449406
18363.989  18363.960  1.000  1.592530  7.720770  1.570485  0.452793
18375.272  18375.260  1.000  1.585557  7.698325  1.576876  0.452203
18386.761  18386.720  1.000  1.585525  7.672561  1.571649  0.450964
18398.399  18398.360  1.000  1.581291  7.646572  1.572972  0.452049
18410.201  18410.170  1.000  1.577116  7.616197  1.573278  0.453315
18422.211  18422.150  1.000  1.573874  7.591136  1.573193  0.455038
18434.296  18434.300  1.000  1.570776  7.555622  1.570691  0.458551
18446.667  18446.620  1.000  1.565890  7.545175  1.576202  0.460425
18459.084  18459.120  1.000  1.560330  7.534446  1.582736  0.463998
18471.832  18471.780  1.000  1.554525  7.504967  1.585722  0.462595
18484.628  18484.620  1.000  1.549925  7.464565  1.584458  0.463768
18497.682  18497.630  1.000  1.546510  7.443347  1.585359  0.462943
18510.860  18510.810  1.000  1.542087  7.415935  1.586522  0.466055
18524.222  18524.160  1.000  1.539411  7.381692  1.583427  0.469300
18537.770  18537.680  1.000  1.536157  7.351748  1.582145  0.469897
18551.398  18551.380  1.000  1.530273  7.319180  1.584431  0.473991
18565.303  18565.240  1.000  1.524260  7.286588  1.586889  0.472945
18579.320  18579.280  1.000  1.519359  7.248505  1.586350  0.475594
18593.525  18593.490  1.000  1.515220  7.217824  1.586189  0.471829
18607.905  18607.870  1.000  1.510056  7.183486  1.586815  0.477281
18622.458  18622.420  1.000  1.505275  7.144846  1.585843  0.476686
18637.203  18637.140  1.000  1.500843  7.113062  1.585801  0.479419
18652.017  18652.040  1.000  1.495420  7.081561  1.587364  0.482872
18667.160  18667.100  1.000  1.489969  7.051557  1.589278  0.482993
18682.374  18682.340  1.000  1.483880  7.014076  1.590486  0.485263
18697.797  18697.750  1.000  1.480034  6.979834  1.588819  0.486176
18713.399  18713.330  1.000  1.475591  6.947411  1.588481  0.486840
18729.120  18729.080  1.000  1.470371  6.910635  1.588342  0.488661
18739.764  18739.680  1.000  1.467253  6.884729  1.587329  0.491086