Folder: webxdiviewer/xdidata/Zr (part 2)

File: Zr-K-Wadeite.xdi
# XDI/1.0 BlueSky/1.10.0 BMM/2023-1.0-py310-tiled
# Beamline.name: BMM (06BM) -- Beamline for Materials Measurement (NIST)
# Beamline.xray_source: NSLS-II three-pole wiggler
# Beamline.collimation: paraboloid mirror, 5 nm Rh on 30 nm Pt
# Beamline.focusing: not in use
# Beamline.harmonic_rejection: flat mirror, Pt stripe, pitch = 7.0 mrad relative to beam
# Beamline.software: Bluesky 1.10.0, Ophyd 1.7.0, DataBroker 2.0.0b13, Python 3.10.8, 2023-1.0-py310-tiled
# Detector.I0: 10 cm N2
# Detector.I1: 25 cm N2
# Detector.I2: 25 cm N2
# Element.symbol: Zr
# Element.edge: K
# Element.reference: Zr
# Element.reference_material: Zr foil
# Facility.name: NSLS-II
# Facility.energy: 3.0
# Facility.current: 400.8
# Facility.mode: top-off
# Facility.GUP: 301027
# Facility.SAF: 310583
# Facility.cycle: 2023-2
# Mono.name: Si(111)
# Mono.d_spacing: 3.13519
# Mono.encoder_resolution: 0.0000050 deg/ct
# Mono.angle_offset: 16.0754 deg
# Mono.scan_mode: pseudo channel cut
# Mono.scan_type: step
# Mono.direction: forward in energy
# Sample.name: K2Zr(SiO3O9)
# Sample.prep: powder in PEG pellet
# Sample.x: 117.785 mm
# Sample.y: 114.695 mm
# Sample.SDD_position: 205.000 mm
# Scan.experimenters: Bruce Ravel
# Scan.edge_energy: 17997.6
# Scan.start_time: 2023-06-23T19:40:16
# Scan.end_time: 2023-06-23T19:48:03
# Scan.transient_id: 84979
# Scan.uid: 2693b3e3-e96e-4364-b114-9675476b0801
# Scan.plot_hint: ln(I0/It)  --  ln($5/$6)
# Column.1: energy eV
# Column.2: requested_energy eV
# Column.3: measurement_time seconds
# Column.4: xmu
# Column.5: I0 nA
# Column.6: It nA
# Column.7: Ir nA
# ///////////
# sample courtesy Martin Stennett, University of Sheffield
# -----------
# energy  requested_energy  measurement_time  xmu  I0  It  Ir
  17797.358  17797.600  0.500  -0.051640  13.4864  14.2011  10.6895
  17827.655  17827.600  0.500  -0.054076  13.3549  14.097  10.6285
  17857.677  17857.600  0.500  -0.056790  13.2243  13.997  10.5559
  17887.703  17887.600  0.500  -0.058734  13.1014  13.8939  10.4878
  17917.705  17917.600  0.500  -0.060526  12.9943  13.8051  10.4152
  17947.666  17947.600  0.500  -0.061171  12.877  13.6892  10.304
  17969.439  17969.600  0.500  -0.058961  12.7282  13.5012  10.0993
  17975.531  17975.600  0.500  -0.057421  12.7745  13.5295  10.077
  17981.572  17981.600  0.500  -0.054857  12.7449  13.4636  9.961601
  17987.545  17987.600  0.500  -0.050525  12.7312  13.391  9.779708
  17988.425  17988.500  0.500  -0.049764  12.7189  13.3678  9.732663
  17989.319  17989.400  0.500  -0.048344  12.7234  13.3536  9.693200
  17990.228  17990.300  0.500  -0.047357  12.7222  13.3391  9.643355
  17991.151  17991.200  0.500  -0.046200  12.7123  13.3134  9.573222
  17992.045  17992.100  0.500  -0.045070  12.7071  13.2929  9.504105
  17992.926  17993.000  0.500  -0.043430  12.7099  13.274  9.421140
  17993.849  17993.900  0.500  -0.041955  12.7009  13.2451  9.311386
  17994.729  17994.800  0.500  -0.039828  12.6996  13.2156  9.177804
  17995.667  17995.700  0.500  -0.037745  12.692  13.1802  8.985803
  17996.548  17996.600  0.500  -0.034971  12.6864  13.1379  8.737482
  17997.471  17997.500  0.500  -0.031958  12.6905  13.1026  8.388687
  17998.395  17998.400  0.500  -0.028051  12.6818  13.0426  7.899810
  17999.262  17999.300  0.500  -0.023634  12.676  12.9792  7.352178
  18000.214  18000.200  0.500  -0.016994  12.6734  12.8906  6.728595
  18001.110  18001.100  0.500  -0.008701  12.6745  12.7853  6.222524
  18001.977  18002.000  0.500  0.001120  12.6564  12.6422  5.867633
  18002.915  18002.900  0.500  0.012942  12.6613  12.4985  5.642613
  18003.811  18003.800  0.500  0.024743  12.6456  12.3366  5.463604
  18004.707  18004.700  0.500  0.038254  12.6361  12.1619  5.259238
  18005.617  18005.600  0.500  0.054245  12.6455  11.9779  4.992942
  18006.513  18006.500  0.500  0.074134  12.64  11.7368  4.670949
  18007.395  18007.400  0.500  0.100506  12.6303  11.4226  4.281500
  18008.334  18008.300  0.500  0.134492  12.6378  11.0475  3.860355
  18009.173  18009.200  0.500  0.174276  12.6363  10.6153  3.445283
  18010.112  18010.100  0.500  0.224582  12.6308  10.0901  3.013712
  18011.008  18011.000  0.500  0.278480  12.6241  9.555611  2.637227
  18011.905  18011.900  0.500  0.338152  12.6123  8.993634  2.313264
  18012.830  18012.800  0.500  0.408813  12.6096  8.378297  2.034430
  18013.670  18013.700  0.500  0.489132  12.6194  7.737674  1.806627
  18014.595  18014.600  0.500  0.592037  12.6035  6.972240  1.592119
  18015.492  18015.500  0.500  0.706261  12.6068  6.221281  1.414667
  18016.375  18016.400  0.500  0.808012  12.6444  5.636148  1.292829
  18017.286  18017.300  0.500  0.892337  12.642  5.179379  1.209286
  18018.169  18018.200  0.500  0.934901  12.6359  4.961152  1.178629
  18019.038  18019.100  0.500  0.938780  12.6372  4.942465  1.189650
  18019.992  18020.000  0.500  0.913280  12.6388  5.070745  1.230670
  18020.890  18020.900  0.500  0.881365  12.6185  5.226781  1.271949
  18021.802  18021.800  0.500  0.853561  12.6182  5.374032  1.308671
  18022.600  18022.600  0.500  0.840631  12.6135  5.441960  1.323882
  18025.635  18025.610  0.500  0.895070  12.6082  5.151444  1.234590
  18028.828  18028.800  0.500  1.015963  12.585  4.556446  1.037579
  18032.194  18032.160  0.500  1.149717  12.5692  3.980998  0.880060
  18035.704  18035.680  0.500  1.072714  12.5587  4.296083  0.994059
  18039.443  18039.380  0.500  0.845262  12.5377  5.384238  1.314269
  18043.241  18043.250  0.500  0.738164  12.477  5.963883  1.469981
  18047.298  18047.300  0.500  0.713884  12.5068  6.125038  1.521186
  18051.529  18051.510  0.500  0.695120  12.4946  6.235005  1.561463
  18055.861  18055.890  0.500  0.681657  12.4732  6.308674  1.548613
  18060.467  18060.450  0.500  0.682372  12.4624  6.298680  1.487744
  18065.191  18065.180  0.500  0.694869  12.4309  6.204768  1.465612
  18070.074  18070.080  0.500  0.713723  12.4268  6.086846  1.493557
  18075.132  18075.150  0.500  0.755804  12.3832  5.815553  1.451103
  18080.379  18080.390  0.500  0.811996  12.3742  5.493808  1.380061
  18085.859  18085.810  0.500  0.823939  12.3432  5.414981  1.357941
  18091.414  18091.390  0.500  0.814800  12.2558  5.425967  1.334804
  18097.131  18097.150  0.500  0.817587  12.3178  5.438267  1.325466
  18103.081  18103.080  0.500  0.805168  12.2813  5.489917  1.362029
  18109.207  18109.180  0.500  0.772742  12.2298  5.647073  1.443091
  18115.454  18115.450  0.500  0.737668  12.2325  5.849927  1.503520
  18121.906  18121.890  0.500  0.713439  12.1281  5.942221  1.510196
  18128.535  18128.500  0.500  0.705326  12.1934  6.022879  1.514806
  18135.329  18135.290  0.500  0.706842  12.1476  5.991171  1.500322
  18142.272  18142.250  0.500  0.715851  12.129  5.928368  1.489882
  18149.393  18149.370  0.500  0.730931  12.0924  5.822001  1.494568
  18156.694  18156.670  0.500  0.736750  12.0866  5.785453  1.517446
  18164.160  18164.150  0.500  0.739172  12.0479  5.752958  1.519766
  18171.821  18171.790  0.500  0.737498  12.0193  5.748953  1.510628
  18179.633  18179.600  0.500  0.741579  11.9884  5.710806  1.476839
  18187.611  18187.590  0.500  0.736782  11.9217  5.706359  1.460048
  18195.785  18195.750  0.500  0.725216  11.9241  5.773894  1.485321
  18204.040  18204.070  0.500  0.715722  11.8918  5.813153  1.519895
  18212.607  18212.570  0.500  0.709250  11.8516  5.831143  1.545964
  18221.299  18221.250  0.500  0.703963  11.7539  5.813707  1.559312
  18230.116  18230.090  0.500  0.700975  11.7889  5.848513  1.564807
  18239.146  18239.100  0.500  0.697819  11.7512  5.848198  1.542882
  18248.302  18248.290  0.500  0.698926  11.7227  5.827591  1.514560
  18257.687  18257.650  0.500  0.703257  11.6842  5.783336  1.510983
  18267.184  18267.170  0.500  0.707636  11.6418  5.737157  1.522393
  18276.881  18276.870  0.500  0.706319  11.5859  5.717163  1.531086
  18286.765  18286.750  0.500  0.703517  11.2701  5.576936  1.504817
  18296.821  18296.790  0.500  0.700717  11.5273  5.720166  1.549217
  18307.035  18307.000  0.500  0.696797  11.4809  5.719554  1.543337
  18317.408  18317.390  0.500  0.691734  11.441  5.728613  1.534437
  18327.954  18327.950  0.500  0.685684  11.4038  5.744635  1.532579
  18338.705  18338.680  0.500  0.680364  11.3666  5.756435  1.551039
  18349.646  18349.580  0.500  0.678620  11.3127  5.739134  1.562319
  18360.719  18360.650  0.500  0.676286  11.2815  5.736641  1.572693
  18371.923  18371.890  0.500  0.672998  11.2385  5.733613  1.578108
  18383.378  18383.310  0.500  0.671827  11.1933  5.717274  1.569868
  18394.907  18394.890  0.500  0.672246  11.1552  5.695398  1.559884
  18406.689  18406.650  0.500  0.672409  11.0959  5.664213  1.550950
  18418.589  18418.580  0.500  0.670381  11.0679  5.661407  1.554472
  18430.729  18430.680  0.500  0.667681  11.0605  5.672877  1.568833
  18442.990  18442.950  0.500  0.664285  11.0174  5.670014  1.577274
  18455.431  18455.390  0.500  0.659389  10.9735  5.675110  1.583674
  18468.084  18468.010  0.500  0.655198  10.9063  5.664072  1.582062
  18480.784  18480.790  0.500  0.651819  10.8036  5.629730  1.571901
  18493.787  18493.750  0.500  0.649348  10.8284  5.656606  1.583171
  18506.913  18506.880  0.500  0.647902  10.7797  5.639314  1.582266
  18520.209  18520.180  0.500  0.644495  10.7324  5.633757  1.585258
  18533.690  18533.650  0.500  0.642319  10.681  5.618974  1.591459
  18547.342  18547.300  0.500  0.640134  10.6391  5.609144  1.595238
  18561.134  18561.110  0.500  0.638195  10.5822  5.589982  1.592726
  18575.160  18575.100  0.500  0.635577  10.5174  5.570329  1.588856
  18589.313  18589.260  0.500  0.631764  10.4794  5.571399  1.593076
  18603.609  18603.590  0.500  0.628900  10.4307  5.561415  1.594978
  18618.125  18618.090  0.500  0.625087  10.3803  5.555703  1.598993
  18632.862  18632.760  0.500  0.621355  10.3213  5.544771  1.601836
  18647.622  18647.600  0.500  0.617736  10.2782  5.541624  1.607201
  18662.650  18662.620  0.500  0.614416  10.2154  5.526087  1.607663
  18677.856  18677.800  0.500  0.612136  10.1645  5.511093  1.607467
  18693.210  18693.160  0.500  0.609297  10.1098  5.497050  1.607353
  18708.727  18708.690  0.500  0.606855  10.0497  5.477740  1.607642
  18724.455  18724.390  0.500  0.603235  10.0017  5.471347  1.610264
  18740.317  18740.260  0.500  0.599878  9.940341  5.456038  1.611553
  18756.360  18756.310  0.500  0.597330  9.883953  5.438930  1.613206
  18772.586  18772.520  0.500  0.593848  9.830054  5.428141  1.615694
  18788.996  18788.910  0.500  0.590296  9.776938  5.418018  1.616913
  18805.527  18805.470  0.500  0.586746  9.710663  5.400428  1.617029
  18822.227  18822.200  0.500  0.583271  9.659361  5.390599  1.618196
  18839.191  18839.100  0.500  0.580020  9.594397  5.371777  1.618074
  18850.523  18850.460  0.500  0.577570  9.574605  5.373850  1.623155

File: Zr-K-Zektzerite.xdi
# XDI/1.0 BlueSky/1.5.3
# Beamline.name: 6BM
# Beamline.xray_source: NSLS-II three-pole wiggler
# Beamline.collimation: paraboloid mirror, 5 nm Rh on 30 nm Pt
# Beamline.focusing: not in use
# Beamline.harmonic_rejection: flat mirror, Pt stripe, pitch = 7.0 mrad relative to beam
# Detector.i0: 10 cm N2
# Detector.i1: 25 cm N2
# Detector.i2: 25 cm N2
# Element.symbol: Zr
# Element.edge: K
# Facility.name: NSLS-II
# Facility.energy: 3.0
# Facility.current: 399.4
# Facility.mode: top-off
# Facility.gup: 305832
# Facility.saf: 305669
# Facility.cycle: 2020-1
# Mono.name: Si(111)
# Mono.d_spacing: 3.13532
# Mono.encoder_resolution: 0.0000050 deg/ct
# Mono.angle_offset: 16.0581 deg
# Mono.scan_mode: fixed exit
# Mono.scan_type: step
# Mono.direction: forward in energy
# Sample.name: LiNaZrSi6O15
# Sample.prep: Powder in polyethylene glycol pellet
# Sample.x_position: -5.367 mm
# Sample.y_position: 103.555 mm
# Scan.experimenters: Neil Hyatt, Martin Stennett, Dan Austin, Seb Lawson
# Scan.edge_energy: 17997.6
# Scan.start_time: 2020-03-05T04:39:28
# Scan.end_time: 2020-03-05T05:13:32
# Scan.transient_id: 22982
# Scan.uid: 577fe5cb-54b9-419f-8fa3-2e345ccfc068
# Scan.plot_hint: ln(I0/It)  --  ln($5/$6)
# Scan.sequence: merge of 3 scans
# Column.1: energy eV
# Column.2: requested_energy eV
# Column.3: measurement_time seconds
# Column.4: mutrans
# Column.5: i0
# Column.6: itrans
# Column.7: irefer
# /////
#
# -----
# energy   requested_energy   measurement_time   mutrans   i0   itrans   irefer
17797.6 17797.6 1.000000 -0.373762 8.888336 12.9165 10.127
17827.7 17827.6 1.000000 -0.375097 8.811945 12.8226 10.0633
17857.7 17857.6 1.000000 -0.375983 8.735809 12.723 9.991066
17887.7 17887.6 1.000000 -0.377294 8.613232 12.561 9.864576
17917.7 17917.6 1.000000 -0.378033 8.579308 12.5207 9.830715
17947.6 17947.6 1.000000 -0.377969 8.514044 12.4247 9.722402
17969.5 17969.6 1.000000 -0.375608 8.428347 12.2706 9.528650
17975.5 17975.6 1.000000 -0.374533 8.466693 12.3132 9.510555
17981.6 17981.6 1.000000 -0.372434 8.450230 12.2634 9.383993
17987.6 17987.6 1.000000 -0.369035 8.450670 12.2224 9.167047
17988.3 17988.3 1.000000 -0.368286 8.448934 12.211 9.120310
17989 17989.1 1.000000 -0.367509 8.453497 12.2083 9.071242
17989.8 17989.8 1.000000 -0.366833 8.451863 12.198 9.004319
17990.5 17990.6 1.000000 -0.366009 8.464897 12.2068 8.941738
17991.3 17991.3 1.000000 -0.364976 8.464243 12.1925 8.838249
17992.1 17992.1 1.000000 -0.363979 8.459357 12.1735 8.710770
17992.8 17992.8 1.000000 -0.362894 8.459639 12.1606 8.551812
17993.6 17993.6 1.000000 -0.361555 8.456117 12.1397 8.342775
17994.3 17994.3 1.000000 -0.360008 8.454477 12.1184 8.069020
17995.1 17995.1 1.000000 -0.358317 8.451892 12.0937 7.698090
17995.9 17995.8 1.000000 -0.356439 8.455192 12.0751 7.289999
17996.6 17996.6 1.000000 -0.353622 8.456417 12.0433 6.838751
17997.3 17997.3 1.000000 -0.350519 8.450121 11.9971 6.421272
17998.1 17998.1 1.000000 -0.346647 8.447352 11.9451 6.043609
17998.9 17998.8 1.000000 -0.341593 8.441856 11.8773 5.770746
17999.6 17999.6 1.000000 -0.336096 8.437396 11.8073 5.585889
18000.4 18000.3 1.000000 -0.329852 8.435654 11.7312 5.446055
18001.1 18001.1 1.000000 -0.323900 8.427062 11.6509 5.315838
18001.9 18001.8 1.000000 -0.316870 8.425101 11.5639 5.147414
18002.6 18002.6 1.000000 -0.308316 8.418263 11.459 4.941465
18003.4 18003.3 1.000000 -0.297899 8.419013 11.3405 4.687947
18004.1 18004.1 1.000000 -0.284880 8.411622 11.185 4.399427
18004.9 18004.8 1.000000 -0.268684 8.409090 11.0013 4.086603
18005.6 18005.6 1.000000 -0.247605 8.404277 10.7608 3.744269
18006.3 18006.3 1.000000 -0.222270 8.406598 10.5027 3.427875
18007.1 18007.1 1.000000 -0.192476 8.409773 10.1993 3.113770
18007.8 18007.8 1.000000 -0.159344 8.405418 9.859836 2.820252
18008.6 18008.6 1.000000 -0.124048 8.404604 9.521167 2.570218
18009.3 18009.3 1.000000 -0.087377 8.399597 9.168682 2.353505
18010.1 18010.1 1.000000 -0.050717 8.401964 8.839406 2.181785
18010.9 18010.8 1.000000 -0.012749 8.398309 8.506055 2.044935
18011.6 18011.6 1.000000 0.023412 8.388905 8.201023 1.945479
18012.3 18012.3 1.000000 0.057554 8.390872 7.921663 1.873623
18013.1 18013.1 1.000000 0.090336 8.402725 7.672797 1.828492
18013.8 18013.8 1.000000 0.118914 8.398545 7.459735 1.797168
18014.6 18014.6 1.000000 0.146071 8.396868 7.253409 1.773970
18015.3 18015.3 1.000000 0.169736 8.394641 7.085341 1.754249
18016.1 18016.1 1.000000 0.191490 8.388590 6.925892 1.731775
18016.9 18016.8 1.000000 0.209247 8.393008 6.806429 1.713901
18017.6 18017.6 1.000000 0.222834 8.388279 6.712719 1.699519
18018.4 18018.3 1.000000 0.232235 8.393061 6.653683 1.685387
18019.1 18019.1 1.000000 0.238372 8.397921 6.616689 1.679154
18019.9 18019.8 1.000000 0.241370 8.392793 6.592640 1.664650
18020.6 18020.6 1.000000 0.242778 8.389398 6.581020 1.663708
18021.4 18021.3 1.000000 0.243763 8.392135 6.576642 1.656542
18022.1 18022.1 1.000000 0.244599 8.388977 6.568816 1.643746
18022.9 18022.8 1.000000 0.246385 8.384325 6.553363 1.622381
18023.6 18023.6 1.000000 0.249379 8.382912 6.532162 1.604222
18024.3 18024.3 1.000000 0.253708 8.379564 6.502334 1.578177
18025.1 18025.1 1.000000 0.260727 8.379059 6.456000 1.545848
18025.9 18025.8 1.000000 0.269594 8.378076 6.397123 1.514721
18026.6 18026.6 1.000000 0.282436 8.378480 6.318106 1.481096
18027.3 18027.3 1.000000 0.296904 8.373839 6.221371 1.443318
18029.7 18029.8 1.000000 0.340613 8.368278 5.953909 1.373286
18033.2 18033.2 1.000000 0.287471 8.363106 6.268619 1.522420
18037 18036.8 1.000000 0.173577 8.321478 7.023599 1.788972
18040.5 18040.5 1.000000 0.111866 8.350193 7.465567 1.912588
18044.4 18044.4 1.000000 0.102156 8.338195 7.528552 1.944929
18048.5 18048.5 1.000000 0.083539 8.324273 7.657583 1.991911
18052.8 18052.8 1.000000 0.066982 8.311843 7.773280 1.980615
18057.2 18057.2 1.000000 0.073588 8.313878 7.724029 1.898752
18061.9 18061.8 1.000000 0.081775 8.299050 7.647641 1.874509
18066.6 18066.6 1.000000 0.096352 8.287375 7.526575 1.914362
18071.6 18071.6 1.000000 0.119534 8.270178 7.338900 1.901450
18076.7 18076.7 1.000000 0.143980 8.261115 7.153487 1.866420
18082 18082 1.000000 0.157345 8.236451 7.037338 1.837063
18087.5 18087.4 1.000000 0.161532 8.211289 6.986448 1.793083
18093.1 18093.1 1.000000 0.164994 8.217305 6.967457 1.763356
18098.9 18098.9 1.000000 0.157155 8.205955 7.012219 1.796475
18104.9 18104.9 1.000000 0.133580 8.173558 7.151497 1.890805
18111 18111 1.000000 0.111418 8.176534 7.314424 1.955441
18117.4 18117.3 1.000000 0.096511 8.153143 7.403085 1.956593
18123.8 18123.8 1.000000 0.092485 8.132085 7.413697 1.937920
18130.5 18130.5 1.000000 0.090819 8.127687 7.422053 1.931194
18137.4 18137.3 1.000000 0.092689 8.115432 7.396942 1.926045
18144.4 18144.3 1.000000 0.100130 8.097222 7.325763 1.939669
18151.5 18151.5 1.000000 0.109884 8.075596 7.235274 1.963113
18158.9 18158.9 1.000000 0.114320 8.063531 7.192444 1.972744
18166.4 18166.4 1.000000 0.111677 8.043837 7.193931 1.967648
18174.1 18174.1 1.000000 0.108761 8.019672 7.193198 1.941930
18182 18182 1.000000 0.108654 7.988998 7.166458 1.907529
18190 18190 1.000000 0.106437 7.968767 7.164164 1.905347
18198.3 18198.2 1.000000 0.101507 7.957584 7.189657 1.942965
18206.6 18206.6 1.000000 0.094673 7.934431 7.217852 1.977502
18215.2 18215.1 1.000000 0.090457 7.911149 7.226967 2.005737
18223.9 18223.8 1.000000 0.087289 7.838733 7.183512 2.001281
18232.7 18232.7 1.000000 0.085611 7.866509 7.221044 1.990177
18241.9 18241.8 1.000000 0.088773 7.842878 7.176608 1.943208
18251.1 18251 1.000000 0.089447 7.811898 7.143473 1.927520
18260.5 18260.5 1.000000 0.089378 7.792083 7.125842 1.951905
18270 18270 1.000000 0.091727 7.781815 7.099779 1.968723
18279.8 18279.8 1.000000 0.092168 7.563577 6.897583 1.925724
18289.8 18289.7 1.000000 0.090538 7.723895 7.055324 1.982255
18299.8 18299.8 1.000000 0.087056 7.711872 7.068899 1.984192
18310.1 18310.1 1.000000 0.084272 7.680627 7.059857 1.969431
18320.5 18320.5 1.000000 0.081853 7.660046 7.058015 1.954994
18331.1 18331.1 1.000000 0.079197 7.635487 7.054067 1.961120
18341.9 18341.9 1.000000 0.075694 7.614797 7.059662 1.985821
18352.9 18352.8 1.000000 0.074215 7.589266 7.046411 1.998638
18364 18364 1.000000 0.073310 7.562230 7.027649 2.003506
18375.3 18375.3 1.000000 0.073072 7.547373 7.015555 2.001406
18386.7 18386.7 1.000000 0.072054 7.521451 6.998565 1.988318
18398.4 18398.4 1.000000 0.072367 7.494840 6.971628 1.979569
18410.2 18410.2 1.000000 0.072089 7.467958 6.948547 1.974888
18422.2 18422.2 1.000000 0.070679 7.442797 6.934895 1.981091
18434.3 18434.3 1.000000 0.069020 7.414333 6.919852 1.992841
18446.7 18446.6 1.000000 0.066294 7.390641 6.916581 2.000099
18459.2 18459.1 1.000000 0.063480 7.359892 6.907219 2.000630
18471.8 18471.8 1.000000 0.061324 7.335263 6.898933 1.996950
18484.6 18484.6 1.000000 0.060028 7.299653 6.874368 1.992642
18497.7 18497.6 1.000000 0.059027 7.283039 6.865559 1.994970
18510.9 18510.8 1.000000 0.057365 7.261389 6.856551 1.997271
18524.2 18524.2 1.000000 0.055781 7.235507 6.842953 2.002029
18537.7 18537.7 1.000000 0.054736 7.212977 6.828770 2.008824
18551.4 18551.4 1.000000 0.053708 7.185083 6.809371 2.009904
18565.2 18565.2 1.000000 0.052293 7.151958 6.787560 2.005750
18579.3 18579.3 1.000000 0.050702 7.119122 6.767163 2.000388
18593.6 18593.5 1.000000 0.049065 7.086254 6.746973 2.002940
18607.9 18607.9 1.000000 0.046898 7.050108 6.727106 2.003346
18622.4 18622.4 1.000000 0.044516 7.012718 6.707384 2.002632
18637.2 18637.1 1.000000 0.042467 6.991593 6.700880 2.009763
18652.1 18652 1.000000 0.040605 6.958915 6.681990 2.011870
18667.1 18667.1 1.000000 0.038819 6.921075 6.657516 2.009856
18682.4 18682.3 1.000000 0.037412 6.891104 6.638052 2.007756
18697.8 18697.8 1.000000 0.036050 6.853653 6.610979 2.006821
18713.4 18713.3 1.000000 0.034712 6.818361 6.585756 2.003018
18729.1 18729.1 1.000000 0.032872 6.787316 6.567824 2.008020
18739.7 18739.7 1.000000 0.031540 6.763453 6.553451 2.005833