Folder: webxdiviewer/xdidata/Zr (part 3)

File: Zr-K-ZirconiumOxide.xdi
# XDI/1.0 BlueSky/1.10.0 BMM/2023-1.0-py310-tiled
# Beamline.name: BMM (06BM) -- Beamline for Materials Measurement (NIST)
# Beamline.xray_source: NSLS-II three-pole wiggler
# Beamline.collimation: paraboloid mirror, 5 nm Rh on 30 nm Pt
# Beamline.focusing: not in use
# Beamline.harmonic_rejection: flat mirror, Pt stripe, pitch = 7.0 mrad relative to beam
# Beamline.software: Bluesky 1.10.0, Ophyd 1.7.0, DataBroker 2.0.0b13, Python 3.10.8, 2023-1.0-py310-tiled
# Detector.I0: 10 cm N2
# Detector.I1: 25 cm N2
# Detector.I2: 25 cm N2
# Element.symbol: Zr
# Element.edge: K
# Element.reference: Zr
# Element.reference_material: Zr foil
# Facility.name: NSLS-II
# Facility.energy: 3.0
# Facility.current: 399.1
# Facility.mode: top-off
# Facility.GUP: 301027
# Facility.SAF: 310583
# Facility.cycle: 2023-2
# Mono.name: Si(111)
# Mono.d_spacing: 3.13519
# Mono.encoder_resolution: 0.0000050 deg/ct
# Mono.angle_offset: 16.0754 deg
# Mono.scan_mode: pseudo channel cut
# Mono.scan_type: step
# Mono.direction: forward in energy
# Sample.name: ZrO2
# Sample.prep: powder in PEG pellet
# Sample.x: 117.785 mm
# Sample.y: 114.695 mm
# Sample.SDD_position: 205.000 mm
# Scan.experimenters: Bruce Ravel
# Scan.edge_energy: 17997.6
# Scan.start_time: 2023-06-23T19:32:32
# Scan.end_time: 2023-06-23T19:39:45
# Scan.transient_id: 84974
# Scan.uid: fdaf4bf9-692d-428e-89a7-67300b4cfe5f
# Scan.plot_hint: ln(I0/It)  --  ln($5/$6)
# Column.1: energy eV
# Column.2: requested_energy eV
# Column.3: measurement_time seconds
# Column.4: xmu
# Column.5: I0 nA
# Column.6: It nA
# Column.7: Ir nA
# ///////////
# sample courtesy Martin Stennett, University of Sheffield
# -----------
# energy  requested_energy  measurement_time  xmu  I0  It  Ir
  17797.539  17797.600  0.500  0.054740  13.6429  12.9161  9.725265
  17827.627  17827.600  0.500  0.051836  13.5045  12.8223  9.660820
  17857.635  17857.600  0.500  0.049844  13.399  12.7475  9.615408
  17887.717  17887.600  0.500  0.048492  13.2584  12.6308  9.530967
  17917.663  17917.600  0.500  0.048844  13.1704  12.5425  9.463496
  17947.666  17947.600  0.500  0.053736  13.0559  12.3728  9.312201
  17969.538  17969.600  0.500  0.065954  12.9071  12.0833  9.034778
  17975.560  17975.600  0.500  0.073205  12.9425  12.0288  8.956975
  17981.586  17981.600  0.500  0.084125  12.9244  11.8816  8.788520
  17987.545  17987.600  0.500  0.101618  12.9004  11.6539  8.509715
  17988.425  17988.500  0.500  0.105231  12.8976  11.6094  8.451408
  17989.348  17989.400  0.500  0.109190  12.9418  11.6031  8.416424
  17990.214  17990.300  0.500  0.113629  12.9398  11.55  8.346426
  17991.151  17991.200  0.500  0.118687  12.944  11.4954  8.265609
  17992.045  17992.100  0.500  0.123996  12.929  11.4213  8.162467
  17992.983  17993.000  0.500  0.130476  12.9296  11.348  8.047294
  17993.863  17993.900  0.500  0.137456  12.9255  11.2655  7.914975
  17994.772  17994.800  0.500  0.146085  12.9241  11.1675  7.744367
  17995.639  17995.700  0.500  0.155738  12.9237  11.0599  7.539980
  17996.619  17996.600  0.500  0.168251  12.9205  10.9197  7.244974
  17997.500  17997.500  0.500  0.183312  12.9194  10.7555  6.870216
  17998.381  17998.400  0.500  0.202097  12.9017  10.5409  6.381029
  17999.305  17999.300  0.500  0.227735  12.9059  10.2774  5.804034
  18000.214  18000.200  0.500  0.263493  12.901  9.912643  5.177443
  18001.124  18001.100  0.500  0.311289  12.8986  9.448260  4.608191
  18002.005  18002.000  0.500  0.370314  12.8971  8.905696  4.141481
  18002.929  18002.900  0.500  0.439812  12.8953  8.306571  3.754212
  18003.797  18003.800  0.500  0.512180  12.8789  7.716905  3.422229
  18004.721  18004.700  0.500  0.587304  12.8846  7.161578  3.100713
  18005.574  18005.600  0.500  0.657271  12.8847  6.677654  2.798502
  18006.499  18006.500  0.500  0.735335  12.874  6.171106  2.467114
  18007.380  18007.400  0.500  0.816554  12.8731  5.689312  2.149308
  18008.305  18008.300  0.500  0.910500  12.8708  5.178216  1.823248
  18009.173  18009.200  0.500  1.012243  12.865  4.675190  1.527365
  18010.084  18010.100  0.500  1.129172  12.8612  4.158036  1.255741
  18010.966  18011.000  0.500  1.263924  12.8602  3.633568  1.015436
  18011.891  18011.900  0.500  1.427713  12.852  3.082635  0.802791
  18012.773  18012.800  0.500  1.618046  12.8398  2.545949  0.626321
  18013.684  18013.700  0.500  1.846464  12.8546  2.028374  0.476727
  18014.581  18014.600  0.500  2.096719  12.8497  1.578697  0.360481
  18015.478  18015.500  0.500  2.358655  12.8424  1.214217  0.274299
  18016.403  18016.400  0.500  2.633948  12.8377  0.921672  0.208648
  18017.301  18017.300  0.500  2.885784  12.8353  0.716349  0.163742
  18018.212  18018.200  0.500  3.130841  12.8316  0.560498  0.129825
  18019.109  18019.100  0.500  3.331928  12.8231  0.458093  0.107159
  18020.007  18020.000  0.500  3.508263  12.8129  0.383732  0.090059
  18020.890  18020.900  0.500  3.635702  12.8144  0.337857  0.079393
  18021.844  18021.800  0.500  3.726499  12.8189  0.308641  0.072130
  18022.614  18022.600  0.500  3.766316  12.8111  0.296412  0.069232
  18025.664  18025.610  0.500  3.699184  12.7939  0.316570  0.072809
  18028.814  18028.800  0.500  3.502887  12.7783  0.384760  0.084791
  18032.151  18032.160  0.500  3.324384  12.768  0.459580  0.099250
  18035.690  18035.680  0.500  3.079927  12.755  0.586255  0.133224
  18039.429  18039.380  0.500  2.848884  12.7346  0.737447  0.177501
  18043.313  18043.250  0.500  2.717865  12.6636  0.835993  0.203278
  18047.313  18047.300  0.500  2.633694  12.7041  0.912313  0.224096
  18051.529  18051.510  0.500  2.550500  12.6941  0.990683  0.245490
  18055.875  18055.890  0.500  2.532395  12.6717  1.007000  0.244269
  18060.496  18060.450  0.500  2.552739  12.6541  0.985349  0.230372
  18065.191  18065.180  0.500  2.617951  12.6336  0.921651  0.215123
  18070.088  18070.080  0.500  2.748232  12.6162  0.807954  0.195741
  18075.146  18075.150  0.500  2.912308  12.5913  0.684338  0.167941
  18080.436  18080.390  0.500  3.008613  12.5714  0.620524  0.153213
  18085.816  18085.810  0.500  2.994263  12.5331  0.627575  0.154392
  18091.385  18091.390  0.500  2.895580  12.4493  0.688036  0.166584
  18097.174  18097.150  0.500  2.807341  12.5172  0.755602  0.181627
  18103.109  18103.080  0.500  2.742456  12.4831  0.804061  0.196958
  18109.193  18109.180  0.500  2.699504  12.4175  0.834936  0.210954
  18115.439  18115.450  0.500  2.687752  12.4333  0.845885  0.214773
  18121.949  18121.890  0.500  2.672398  12.3174  0.850962  0.213476
  18128.507  18128.500  0.500  2.645901  12.3847  0.878587  0.218069
  18135.300  18135.290  0.500  2.635454  12.337  0.884392  0.219026
  18142.286  18142.250  0.500  2.659711  12.3773  0.866018  0.214960
  18149.408  18149.370  0.500  2.704647  12.3347  0.825115  0.208991
  18156.709  18156.670  0.500  2.750180  12.3157  0.787174  0.203235
  18164.160  18164.150  0.500  2.753367  12.2988  0.783595  0.204228
  18171.792  18171.790  0.500  2.712711  12.2614  0.813623  0.210887
  18179.647  18179.600  0.500  2.658400  12.2296  0.856808  0.218982
  18187.611  18187.590  0.500  2.631091  12.1912  0.877762  0.221888
  18195.800  18195.750  0.500  2.619819  12.1701  0.886181  0.225182
  18204.098  18204.070  0.500  2.627398  12.1348  0.876936  0.226538
  18212.593  18212.570  0.500  2.644382  12.0931  0.859202  0.224863
  18221.285  18221.250  0.500  2.640873  11.9997  0.855570  0.226629
  18230.102  18230.090  0.500  2.614122  12.0375  0.881530  0.233185
  18239.132  18239.100  0.500  2.605891  11.9931  0.885535  0.230628
  18248.288  18248.290  0.500  2.610457  11.9566  0.878823  0.225461
  18257.716  18257.650  0.500  2.618712  11.92  0.868930  0.224101
  18267.198  18267.170  0.500  2.623153  11.8788  0.862084  0.225937
  18276.910  18276.870  0.500  2.626390  11.832  0.855915  0.226546
  18286.765  18286.750  0.500  2.617753  11.5041  0.839416  0.223764
  18296.865  18296.790  0.500  2.598979  11.7609  0.874416  0.234178
  18307.035  18307.000  0.500  2.572590  11.7165  0.894406  0.238819
  18317.437  18317.390  0.500  2.554748  11.6732  0.907143  0.240227
  18327.969  18327.950  0.500  2.565797  11.6396  0.894598  0.235587
  18338.705  18338.680  0.500  2.574393  11.5841  0.882711  0.235079
  18349.602  18349.580  0.500  2.560359  11.5335  0.891271  0.239669
  18360.719  18360.650  0.500  2.557495  11.5024  0.891419  0.241568
  18371.893  18371.890  0.500  2.547290  11.457  0.897012  0.243756
  18383.363  18383.310  0.500  2.535323  11.4133  0.904345  0.245326
  18394.937  18394.890  0.500  2.526079  11.3777  0.909900  0.246252
  18406.659  18406.650  0.500  2.524901  11.3352  0.907566  0.245728
  18418.634  18418.580  0.500  2.531800  11.2803  0.896962  0.243302
  18430.699  18430.680  0.500  2.529861  11.2349  0.895086  0.244430
  18443.020  18442.950  0.500  2.514288  11.1862  0.905190  0.248921
  18455.461  18455.390  0.500  2.499675  11.1494  0.915493  0.252637
  18468.054  18468.010  0.500  2.489215  11.094  0.920527  0.254139
  18480.859  18480.790  0.500  2.481812  10.985  0.918255  0.253602
  18493.817  18493.750  0.500  2.486896  11.0015  0.914970  0.253574
  18506.913  18506.880  0.500  2.487874  10.9401  0.908977  0.251791
  18520.285  18520.180  0.500  2.477159  10.9009  0.915471  0.254783
  18533.690  18533.650  0.500  2.463491  10.8538  0.924065  0.258772
  18547.327  18547.300  0.500  2.452261  10.802  0.930038  0.261500
  18561.195  18561.110  0.500  2.445448  10.755  0.932324  0.262672
  18575.145  18575.100  0.500  2.445263  10.6987  0.927610  0.261498
  18589.358  18589.260  0.500  2.441066  10.6475  0.927058  0.262587
  18603.654  18603.590  0.500  2.432537  10.588  0.929769  0.263820
  18618.216  18618.090  0.500  2.424054  10.5432  0.933723  0.265904
  18632.846  18632.760  0.500  2.411907  10.4782  0.939307  0.268215
  18647.790  18647.600  0.500  2.401835  10.4254  0.944042  0.270800
  18662.681  18662.620  0.500  2.398207  10.372  0.942611  0.271298
  18677.841  18677.800  0.500  2.392570  10.3234  0.943499  0.272619
  18693.194  18693.160  0.500  2.388054  10.271  0.942963  0.273144
  18708.758  18708.690  0.500  2.377862  10.2092  0.946890  0.275031
  18724.393  18724.390  0.500  2.369956  10.1562  0.949454  0.276797
  18740.332  18740.260  0.500  2.359511  10.0918  0.953335  0.278653
  18756.376  18756.310  0.500  2.352541  10.0436  0.955415  0.280560
  18772.633  18772.520  0.500  2.344869  9.982532  0.956923  0.281814
  18788.980  18788.910  0.500  2.340046  9.931762  0.956659  0.282602
  18805.527  18805.470  0.500  2.332390  9.872594  0.958268  0.283690
  18822.258  18822.200  0.500  2.323782  9.815646  0.960977  0.285749
  18839.176  18839.100  0.500  2.312468  9.755906  0.965997  0.288217
  18850.523  18850.460  0.500  2.307168  9.719934  0.967549  0.289350

File: Zr-K-ZrSiO4.xdi
# XDI/1.0 BlueSky/1.5.3
# Beamline.name: 6BM
# Beamline.xray_source: NSLS-II three-pole wiggler
# Beamline.collimation: paraboloid mirror, 5 nm Rh on 30 nm Pt
# Beamline.focusing: not in use
# Beamline.harmonic_rejection: flat mirror, Pt stripe, pitch = 7.0 mrad relative to beam
# Detector.i0: 10 cm N2
# Detector.I1: 25 cm N2
# Detector.I2: 25 cm N2
# Element.symbol: Zr
# Element.edge: K
# Facility.name: NSLS-II
# Facility.energy: 3.0
# Facility.current: 399.2
# Facility.mode: top-off
# Facility.GUP: 305832
# Facility.SAF: 305669
# Facility.cycle: 2020-1
# Mono.name: Si(111)
# Mono.d_spacing: 3.13532
# Mono.encoder_resolution: 0.0000050 deg/ct
# Mono.angle_offset: 16.0581 deg
# Mono.scan_mode: fixed exit
# Mono.scan_type: step
# Mono.direction: forward in energy
# Sample.name: ZrSiO4
# Sample.prep: Powder in polyethylene glycol pellet
# Sample.x_position: -5.367 mm
# Sample.y_position: 103.555 mm
# Scan.experimenters: Neil Hyatt, Martin Stennett, Dan Austin, Seb Lawson
# Scan.edge_energy: 17997.6
# Scan.start_time: 2020-03-05T04:27:50
# Scan.end_time: 2020-03-05T04:39:12
# Scan.transient_id: 22981
# Scan.uid: cec98351-9ce1-44ea-a18b-8d5a18cbab20
# Scan.plot_hint: ln(i0/itrans)  --  ln($5/$6)
# Column.1: energy eV
# Column.2: requested_energy eV
# Column.3: measurement_time seconds
# Column.4: mutrans
# Column.5: i0
# Column.6: itrans
# Column.7: irefer
# ///////////
#
# -----------
#  energy  requested_energy  measurement_time  mutrans  i0  itrans  irefer
17797.612  17797.600  1.000  0.066179  9.077127  8.495858  6.662619
17827.730  17827.600  1.000  0.063453  9.007949  8.454123  6.629400
17857.726  17857.600  1.000  0.061240  8.929319  8.398896  6.588770
17887.698  17887.600  1.000  0.059356  8.793673  8.286909  6.506023
17917.602  17917.600  1.000  0.059467  8.762524  8.256630  6.477019
17947.663  17947.600  1.000  0.064094  8.680735  8.141811  6.369608
17969.521  17969.600  1.000  0.075860  8.585924  7.958687  6.175930
17975.529  17975.600  1.000  0.082629  8.619231  7.935664  6.126967
17981.584  17981.600  1.000  0.093646  8.593016  7.824843  5.982493
17987.543  17987.600  1.000  0.111612  8.587880  7.680921  5.757386
17988.253  17988.350  1.000  0.114183  8.583149  7.656982  5.713760
17989.034  17989.100  1.000  0.118142  8.578299  7.622417  5.656830
17989.829  17989.850  1.000  0.121804  8.571211  7.588278  5.594759
17990.539  17990.600  1.000  0.125932  8.570322  7.556238  5.530328
17991.320  17991.350  1.000  0.130831  8.566123  7.515629  5.440901
17992.044  17992.100  1.000  0.135869  8.567563  7.479116  5.348307
17992.839  17992.850  1.000  0.141864  8.566306  7.433321  5.218685
17993.592  17993.600  1.000  0.148581  8.562082  7.379915  5.062684
17994.345  17994.350  1.000  0.156180  8.562831  7.324688  4.866137
17995.098  17995.100  1.000  0.164721  8.562346  7.261982  4.619823
17995.836  17995.850  1.000  0.174852  8.557486  7.184707  4.335260
17996.604  17996.600  1.000  0.188218  8.559430  7.090921  4.020562
17997.357  17997.350  1.000  0.203680  8.558915  6.981705  3.731554
17998.110  17998.100  1.000  0.223613  8.560086  6.844857  3.471309
17998.863  17998.850  1.000  0.248907  8.555789  6.670542  3.244210
17999.588  17999.600  1.000  0.278019  8.557415  6.480383  3.069591
18000.370  18000.350  1.000  0.313424  8.553818  6.252324  2.906874
18001.109  18001.100  1.000  0.348593  8.555941  6.037758  2.758240
18001.862  18001.850  1.000  0.385531  8.577289  5.833326  2.602773
18002.601  18002.600  1.000  0.420846  8.589241  5.638763  2.439832
18003.355  18003.350  1.000  0.458682  8.584565  5.426445  2.251483
18004.094  18004.100  1.000  0.501279  8.588020  5.202242  2.056154
18004.848  18004.850  1.000  0.549235  8.581331  4.954786  1.853400
18005.602  18005.600  1.000  0.610369  8.584354  4.662597  1.641729
18006.342  18006.350  1.000  0.680201  8.583196  4.347520  1.437319
18007.095  18007.100  1.000  0.769566  8.577657  3.973293  1.226634
18007.821  18007.850  1.000  0.870343  8.573319  3.590574  1.043149
18008.575  18008.600  1.000  0.985288  8.575303  3.201432  0.881390
18009.343  18009.350  1.000  1.123532  8.569207  2.786102  0.727270
18010.069  18010.100  1.000  1.266416  8.570800  2.415594  0.608951
18010.852  18010.850  1.000  1.438103  8.568644  2.034005  0.497308
18011.563  18011.600  1.000  1.612974  8.567120  1.707376  0.412861
18012.346  18012.350  1.000  1.821681  8.567917  1.385892  0.334468
18013.086  18013.100  1.000  2.032427  8.563357  1.121946  0.271936
18013.841  18013.850  1.000  2.275774  8.564130  0.879685  0.217237
18014.609  18014.600  1.000  2.528088  8.569191  0.683920  0.172521
18015.335  18015.350  1.000  2.764678  8.560289  0.539267  0.139903
18016.104  18016.100  1.000  2.971878  8.557438  0.438201  0.117692
18016.859  18016.850  1.000  3.095688  8.549956  0.386833  0.104391
18017.614  18017.600  1.000  3.118413  8.546529  0.377990  0.103729
18018.369  18018.350  1.000  3.062788  8.542219  0.399410  0.108054
18019.109  18019.100  1.000  2.969135  8.537155  0.438363  0.117068
18019.836  18019.850  1.000  2.868217  8.530778  0.484549  0.130165
18020.576  18020.600  1.000  2.785061  8.517859  0.525768  0.138226
18021.389  18021.350  1.000  2.726293  8.505906  0.556809  0.145979
18022.087  18022.100  1.000  2.696919  8.497652  0.572852  0.149092
18022.856  18022.850  1.000  2.682596  8.479802  0.579894  0.147176
18023.597  18023.600  1.000  2.682116  8.474807  0.579831  0.149464
18024.324  18024.350  1.000  2.687948  8.469795  0.576119  0.145704
18025.108  18025.100  1.000  2.698351  8.498581  0.572094  0.140544
18025.835  18025.850  1.000  2.709246  8.490702  0.565370  0.140104
18026.590  18026.600  1.000  2.716511  8.487954  0.561096  0.134839
18027.303  18027.350  1.000  2.711976  8.485809  0.563504  0.136181
18029.770  18029.780  1.000  2.589954  8.472301  0.635621  0.154305
18033.150  18033.180  1.000  2.296635  8.449582  0.850001  0.209714
18036.761  18036.760  1.000  2.162179  8.407027  0.967431  0.252722
18040.529  18040.510  1.000  2.056734  8.441098  1.079371  0.281599
18044.428  18044.430  1.000  2.002103  8.432339  1.138795  0.300476
18048.500  18048.530  1.000  1.984737  8.416787  1.156607  0.306909
18052.788  18052.790  1.000  2.013740  8.411086  1.122783  0.289627
18057.264  18057.230  1.000  2.112465  8.400610  1.015965  0.254928
18061.886  18061.840  1.000  2.148590  8.387855  0.978431  0.247462
18066.639  18066.610  1.000  2.169688  8.372780  0.956283  0.249552
18071.595  18071.570  1.000  2.226137  8.361558  0.902585  0.240281
18076.697  18076.690  1.000  2.345691  8.347084  0.799492  0.214978
18082.003  18081.980  1.000  2.376566  8.321615  0.772819  0.207457
18087.455  18087.440  1.000  2.277478  8.301374  0.851244  0.222269
18093.097  18093.080  1.000  2.195399  8.301301  0.924052  0.239924
18098.901  18098.890  1.000  2.155552  8.290819  0.960402  0.251130
18104.839  18104.870  1.000  2.116875  8.255003  0.993963  0.268259
18111.039  18111.020  1.000  2.080845  8.260767  1.031148  0.283291
18117.373  18117.340  1.000  2.064780  8.237494  1.044895  0.279069
18123.856  18123.830  1.000  2.072125  8.218812  1.034896  0.275930
18130.487  18130.500  1.000  2.101058  8.208138  1.004076  0.268387
18137.354  18137.340  1.000  2.143774  8.195748  0.960637  0.258604
18144.371  18144.340  1.000  2.174007  8.175614  0.929740  0.252781
18151.553  18151.520  1.000  2.158931  8.197807  0.946424  0.263173
18158.856  18158.870  1.000  2.126909  8.180846  0.975199  0.271993
18166.411  18166.390  1.000  2.104616  8.165714  0.995339  0.278449
18174.131  18174.090  1.000  2.113900  8.153116  0.984619  0.273190
18181.960  18181.950  1.000  2.090003  8.118834  1.004193  0.270743
18189.985  18189.990  1.000  2.078915  8.108403  1.014085  0.275859
18198.205  18198.200  1.000  2.065236  8.093242  1.026129  0.282482
18206.578  18206.580  1.000  2.053139  8.069948  1.035629  0.290463
18215.148  18215.130  1.000  2.058238  8.050202  1.027839  0.290510
18223.873  18223.850  1.000  2.073504  7.975936  1.002929  0.285717
18232.751  18232.740  1.000  2.074014  8.005717  1.006161  0.284639
18241.828  18241.810  1.000  2.082736  7.982397  0.994518  0.274618
18251.045  18251.050  1.000  2.079029  7.953800  0.994636  0.275385
18260.492  18260.450  1.000  2.058778  7.938270  1.013001  0.286129
18270.036  18270.030  1.000  2.050712  7.912202  1.017851  0.288561
18279.795  18279.780  1.000  2.046110  7.692992  0.994216  0.284530
18289.756  18289.710  1.000  2.045328  7.862932  1.016975  0.291406
18299.816  18299.800  1.000  2.051702  7.843603  1.008028  0.288152
18310.107  18310.070  1.000  2.037533  7.813250  1.018456  0.288755
18320.513  18320.500  1.000  2.031812  7.793649  1.021730  0.289226
18331.167  18331.110  1.000  2.020880  7.764732  1.029128  0.292553
18341.878  18341.890  1.000  2.007980  7.744127  1.039723  0.298362
18352.868  18352.840  1.000  2.001321  7.719944  1.043402  0.301002
18363.974  18363.960  1.000  2.013955  7.692217  1.026602  0.297199
18375.301  18375.260  1.000  2.024863  7.665691  1.011963  0.292835
18386.717  18386.720  1.000  2.016807  7.638563  1.016538  0.294186
18398.429  18398.360  1.000  1.992354  7.612508  1.038149  0.301190
18410.186  18410.170  1.000  1.987270  7.582429  1.039317  0.301148
18422.211  18422.150  1.000  1.983806  7.559294  1.039741  0.302820
18434.281  18434.300  1.000  1.982767  7.531379  1.036979  0.303364
18446.667  18446.620  1.000  1.979042  7.523457  1.039753  0.306409
18459.143  18459.120  1.000  1.983160  7.503104  1.032680  0.303269
18471.847  18471.780  1.000  1.978778  7.478527  1.033817  0.305493
18484.673  18484.620  1.000  1.959905  7.439681  1.048041  0.307777
18497.667  18497.630  1.000  1.948626  7.423153  1.057574  0.311600
18510.860  18510.810  1.000  1.957102  7.399573  1.045317  0.311888
18524.162  18524.160  1.000  1.958259  7.371048  1.040084  0.308069
18537.724  18537.680  1.000  1.950722  7.349765  1.044926  0.311752
18551.428  18551.380  1.000  1.942433  7.319497  1.049285  0.314569
18565.288  18565.240  1.000  1.936224  7.287460  1.051198  0.318167
18579.335  18579.280  1.000  1.930489  7.256647  1.052774  0.318691
18593.495  18593.490  1.000  1.922762  7.225529  1.056391  0.318312
18607.920  18607.870  1.000  1.919144  7.194376  1.055649  0.319527
18622.443  18622.420  1.000  1.918872  7.157916  1.050585  0.319119
18637.218  18637.140  1.000  1.911535  7.126399  1.053662  0.321612
18652.108  18652.040  1.000  1.900590  7.097666  1.060962  0.324817
18667.160  18667.100  1.000  1.893328  7.063415  1.063538  0.326291
18682.404  18682.340  1.000  1.892292  7.027381  1.059209  0.326108
18697.827  18697.750  1.000  1.888235  6.990564  1.057943  0.327526
18713.353  18713.330  1.000  1.883778  6.960391  1.058082  0.328710
18729.135  18729.080  1.000  1.875254  6.921327  1.061150  0.331799
18739.703  18739.680  1.000  1.872728  6.897771  1.060213  0.329168