Folder: webxdiviewer/xdidata/Data/As

Note: xdidata/README.md
# bmm-standards
A pretty webpage for BMM's collection of common XAFS materials

[BMM's common materials collection](./BMM-standards.html)

Plotting of the data will happen soon.

Periodic table adapted from [some guy named Daniel](https://codepen.io/gooseofmusic/pen/PjKdNQ)

[This](https://www.coderstool.com/scss-to-css) is a helpful tool for
dealing with Sassy CSS.

File: As-K-CacodylicAcid.xdi
# XDI/1.0 BlueSky/1.10.0 BMM/2023-1.0-py310-tiled
# Beamline.name: BMM (06BM) -- Beamline for Materials Measurement (NIST)
# Beamline.xray_source: NSLS-II three-pole wiggler
# Beamline.collimation: paraboloid mirror, 5 nm Rh on 30 nm Pt
# Beamline.focusing: not in use
# Beamline.harmonic_rejection: flat mirror, Pt stripe, pitch = 7.0 mrad relative to beam
# Beamline.software: Bluesky 1.10.0, Ophyd 1.7.0, DataBroker 2.0.0b13, Python 3.10.8, 2023-1.0-py310-tiled
# Detector.I0: 10 cm N2
# Detector.I1: 25 cm N2
# Detector.I2: 25 cm N2
# Element.symbol: As
# Element.edge: K
# Element.reference: As
# Element.reference_material: As2O3
# Facility.name: NSLS-II
# Facility.energy: 3.0
# Facility.current: 400.2
# Facility.mode: top-off
# Facility.GUP: 301027
# Facility.SAF: 310583
# Facility.cycle: 2023-2
# Mono.name: Si(111)
# Mono.d_spacing: 3.13519
# Mono.encoder_resolution: 0.0000050 deg/ct
# Mono.angle_offset: 16.0754 deg
# Mono.scan_mode: pseudo channel cut
# Mono.scan_type: step
# Mono.direction: forward in energy
# Sample.name: C2H7AsO2
# Sample.prep: powder in PEG pellet
# Sample.x: 115.008 mm
# Sample.y: 114.461 mm
# Sample.SDD_position: 170.000 mm
# Scan.experimenters: Bruce Ravel
# Scan.edge_energy: 11866.7
# Scan.start_time: 2023-07-10T16:53:48
# Scan.end_time: 2023-07-10T17:01:41
# Scan.transient_id: 90301
# Scan.uid: d8b30e46-0f08-461c-a012-15ef953595df
# Scan.plot_hint: ln(I0/It)  --  ln($5/$6)
# Column.1: energy eV
# Column.2: requested_energy eV
# Column.3: measurement_time seconds
# Column.4: xmu
# Column.5: I0 nA
# Column.6: It nA
# Column.7: Ir nA
# ///////////
# sample courtesy Evan Jahrman, NIST
# -----------
# energy  requested_energy  measurement_time  xmu  I0  It  Ir
  11666.684  11666.700  0.500  0.086209  65.0732  59.6984  40.5583
  11696.736  11696.700  0.500  0.080690  64.7278  59.7101  40.675
  11726.749  11726.700  0.500  0.075382  64.3209  59.6506  40.7448
  11756.732  11756.700  0.500  0.070147  63.7998  59.4778  40.7249
  11786.750  11786.700  0.500  0.065267  63.5207  59.5073  40.8296
  11816.711  11816.700  0.500  0.061322  63.0702  59.3188  40.7499
  11838.668  11838.700  0.500  0.060484  62.798  59.1123  40.523
  11844.666  11844.700  0.500  0.061373  62.7326  58.9982  40.3632
  11850.664  11850.700  0.500  0.063620  62.6319  58.7713  40.0475
  11856.668  11856.700  0.500  0.068681  62.3826  58.242  39.3384
  11857.561  11857.600  0.500  0.069922  62.4781  58.2587  39.2658
  11858.467  11858.500  0.500  0.071534  62.4888  58.1748  39.1096
  11859.361  11859.400  0.500  0.073274  62.2813  57.8809  38.7969
  11860.260  11860.300  0.500  0.075429  62.1484  57.633  38.4945
  11861.160  11861.200  0.500  0.077884  62.2418  57.5782  38.2862
  11862.066  11862.100  0.500  0.080841  62.3377  57.4965  38.0289
  11862.979  11863.000  0.500  0.084393  62.2387  57.2017  37.5932
  11863.885  11863.900  0.500  0.088797  62.2863  56.9939  37.1476
  11864.792  11864.800  0.500  0.094358  62.3878  56.7702  36.6088
  11865.692  11865.700  0.500  0.101653  62.4053  56.3733  35.8271
  11866.581  11866.600  0.500  0.111222  62.3873  55.8205  34.7805
  11867.494  11867.500  0.500  0.124268  62.3789  55.0895  33.3533
  11868.377  11868.400  0.500  0.142112  62.3526  54.0924  31.4442
  11869.290  11869.300  0.500  0.169126  62.3376  52.638  28.7385
  11870.204  11870.200  0.500  0.212954  62.292  50.344  24.9242
  11871.099  11871.100  0.500  0.290460  62.1558  46.4875  20.0431
  11872.000  11872.000  0.500  0.443121  62.1641  39.9112  14.7529
  11872.890  11872.900  0.500  0.735032  62.2727  29.8591  9.959385
  11873.792  11873.800  0.500  1.200800  62.2894  18.7462  6.158365
  11874.706  11874.700  0.500  1.634368  62.279  12.1491  4.182509
  11875.602  11875.600  0.500  1.700618  62.2638  11.3675  4.079147
  11876.498  11876.500  0.500  1.480306  62.2408  14.164  5.220958
  11877.407  11877.400  0.500  1.219185  62.2269  18.3862  7.042366
  11878.297  11878.300  0.500  1.036935  62.2128  22.0569  8.847307
  11879.181  11879.200  0.500  0.938429  62.1906  24.3316  10.1631
  11880.090  11880.100  0.500  0.906495  62.3948  25.2036  10.7949
  11881.011  11881.000  0.500  0.912234  62.371  25.0498  10.78
  11881.896  11881.900  0.500  0.925687  62.3505  24.707  10.4624
  11882.806  11882.800  0.500  0.940814  62.3245  24.3259  10.0266
  11883.703  11883.700  0.500  0.956657  62.2765  23.9251  9.682308
  11884.594  11884.600  0.500  0.963888  61.9818  23.6403  9.556238
  11885.498  11885.500  0.500  0.954311  61.6066  23.7233  9.690471
  11886.395  11886.400  0.500  0.932033  61.6922  24.2915  10.0341
  11887.305  11887.300  0.500  0.905004  62.0411  25.0981  10.4427
  11888.209  11888.200  0.500  0.879198  62.157  25.8023  10.782
  11889.120  11889.100  0.500  0.855029  62.17  26.4391  11.0963
  11889.999  11890.000  0.500  0.834275  62.1486  26.9843  11.4056
  11890.898  11890.900  0.500  0.816028  62.1278  27.4719  11.7233
  11891.685  11891.700  0.500  0.802379  62.1033  27.8385  11.9686
  11894.720  11894.710  0.500  0.772399  62.0628  28.667  12.6387
  11897.898  11897.900  0.500  0.743175  61.9982  29.4864  13.2509
  11901.288  11901.260  0.500  0.680652  61.6878  31.2317  14.0807
  11904.784  11904.780  0.500  0.623310  61.8577  33.166  15.0699
  11908.504  11908.480  0.500  0.597770  61.8492  34.0194  15.5915
  11912.357  11912.350  0.500  0.596542  61.8013  34.0348  15.5976
  11916.428  11916.400  0.500  0.608316  61.51  33.4778  15.0961
  11920.632  11920.610  0.500  0.635224  61.6743  32.6761  14.5976
  11925.000  11924.990  0.500  0.664384  61.6345  31.7165  14.0577
  11929.570  11929.550  0.500  0.687841  61.5692  30.9484  13.5308
  11934.285  11934.280  0.500  0.705255  61.268  30.2653  13.1573
  11939.178  11939.180  0.500  0.713397  61.4149  30.0919  13.0385
  11944.262  11944.250  0.500  0.720472  61.3564  29.8513  12.8983
  11949.499  11949.490  0.500  0.723723  61.2838  29.7192  12.8296
  11954.908  11954.910  0.500  0.722111  61.2078  29.7302  12.9353
  11960.479  11960.490  0.500  0.716880  61.1306  29.8484  13.0513
  11966.266  11966.250  0.500  0.707987  61.0482  30.0745  13.2194
  11972.184  11972.180  0.500  0.694739  60.9539  30.4285  13.429
  11978.245  11978.280  0.500  0.681102  60.8676  30.8026  13.6457
  11984.612  11984.550  0.500  0.669535  60.7655  31.1087  13.8555
  11991.156  11990.990  0.500  0.662575  60.6697  31.2766  13.9944
  11997.612  11997.600  0.500  0.659646  60.5787  31.3213  14.0367
  12004.396  12004.390  0.500  0.659169  60.5007  31.2959  13.998
  12011.363  12011.350  0.500  0.658906  60.4073  31.2558  13.9195
  12018.465  12018.470  0.500  0.659627  60.314  31.185  13.8381
  12025.782  12025.770  0.500  0.661692  60.2199  31.0721  13.7558
  12033.247  12033.250  0.500  0.664203  60.1188  30.9421  13.6797
  12040.905  12040.890  0.500  0.666969  60.0088  30.8002  13.6245
  12048.711  12048.700  0.500  0.666584  58.1871  29.8767  13.2505
  12056.693  12056.690  0.500  0.664172  59.7716  30.7644  13.6917
  12064.856  12064.850  0.500  0.660735  59.6698  30.8178  13.7521
  12073.183  12073.170  0.500  0.656814  59.5612  30.8825  13.7949
  12081.667  12081.670  0.500  0.652224  59.4383  30.9606  13.8524
  12090.348  12090.350  0.500  0.647698  59.3141  31.036  13.9188
  12099.202  12099.190  0.500  0.643250  59.2162  31.1229  13.9799
  12108.196  12108.200  0.500  0.639428  59.0971  31.1792  14.0299
  12117.402  12117.390  0.500  0.636024  58.9805  31.2239  14.0869
  12126.762  12126.750  0.500  0.633300  58.8422  31.2356  14.1153
  12136.273  12136.270  0.500  0.630619  58.7346  31.2622  14.1313
  12145.965  12145.970  0.500  0.627715  58.6091  31.2861  14.1234
  12155.860  12155.850  0.500  0.624818  58.468  31.3014  14.1084
  12165.906  12165.890  0.500  0.621873  58.3396  31.3247  14.1263
  12176.118  12176.100  0.500  0.619061  58.2004  31.338  14.1729
  12186.502  12186.490  0.500  0.615835  58.0539  31.3601  14.2332
  12197.060  12197.050  0.500  0.612761  57.9149  31.3814  14.2842
  12207.799  12207.780  0.500  0.609484  57.7829  31.4126  14.3202
  12218.700  12218.680  0.500  0.606192  57.8503  31.5529  14.394
  12229.764  12229.750  0.500  0.602394  57.7054  31.5937  14.4196
  12241.024  12240.990  0.500  0.598725  57.5097  31.6023  14.4486
  12252.430  12252.410  0.500  0.594883  57.391  31.6584  14.5159
  12264.008  12263.990  0.500  0.590843  56.3146  31.1904  14.3508
  12275.759  12275.750  0.500  0.586884  57.0887  31.7446  14.6326
  12287.697  12287.680  0.500  0.582727  56.8896  31.7656  14.6545
  12299.804  12299.780  0.500  0.578515  56.5698  31.7204  14.6314
  12312.081  12312.050  0.500  0.574618  56.5784  31.8491  14.6993
  12324.514  12324.490  0.500  0.570732  56.2972  31.8142  14.6984
  12337.119  12337.110  0.500  0.566781  56.2444  31.9102  14.7807
  12349.903  12349.890  0.500  0.562752  55.9464  31.8693  14.8027
  12362.873  12362.850  0.500  0.559082  55.9131  31.9674  14.8875
  12376.018  12375.980  0.500  0.555450  55.7605  31.9962  14.9248
  12389.272  12389.280  0.500  0.551857  55.6082  32.0236  14.9594
  12402.762  12402.750  0.500  0.547986  55.4271  32.0431  14.9826
  12416.430  12416.400  0.500  0.544021  55.2313  32.0568  15.0191
  12430.243  12430.210  0.500  0.539987  55.0419  32.076  15.0621
  12444.221  12444.200  0.500  0.535788  54.9136  32.1359  15.1308
  12458.367  12458.360  0.500  0.531496  54.7296  32.1659  15.1767
  12472.716  12472.690  0.500  0.527190  54.5477  32.1974  15.2159
  12487.213  12487.190  0.500  0.522789  54.1385  32.0968  15.1824
  12501.880  12501.860  0.500  0.518265  54.189  32.2724  15.2832
  12516.726  12516.700  0.500  0.514077  53.9957  32.2922  15.3205
  12531.744  12531.720  0.500  0.509798  53.8032  32.3151  15.3651
  12546.923  12546.900  0.500  0.505780  53.632  32.342  15.4169
  12562.290  12562.260  0.500  0.501661  53.4386  32.3583  15.4603
  12577.833  12577.790  0.500  0.497739  53.2199  32.3526  15.4854
  12593.540  12593.490  0.500  0.493615  53.0463  32.3803  15.525
  12609.425  12609.360  0.500  0.489603  52.8523  32.3916  15.5583
  12625.434  12625.410  0.500  0.485414  52.6407  32.3973  15.5907
  12641.651  12641.620  0.500  0.481226  52.4098  32.3906  15.6262
  12658.051  12658.010  0.500  0.476799  52.2588  32.4405  15.6828
  12674.619  12674.570  0.500  0.472369  52.0559  32.4581  15.7244
  12691.323  12691.300  0.500  0.467766  51.8466  32.4767  15.7599
  12708.254  12708.200  0.500  0.463280  51.6434  32.4949  15.7947
  12719.600  12719.560  0.500  0.460387  51.4997  32.4983  15.8154

File: As-K-SodiumMetaArsenite.xdi
# XDI/1.0 BlueSky/1.10.0 BMM/2023-1.0-py310-tiled
# Beamline.name: BMM (06BM) -- Beamline for Materials Measurement (NIST)
# Beamline.xray_source: NSLS-II three-pole wiggler
# Beamline.collimation: paraboloid mirror, 5 nm Rh on 30 nm Pt
# Beamline.focusing: not in use
# Beamline.harmonic_rejection: flat mirror, Pt stripe, pitch = 7.0 mrad relative to beam
# Beamline.software: Bluesky 1.10.0, Ophyd 1.7.0, DataBroker 2.0.0b13, Python 3.10.8, 2023-1.0-py310-tiled
# Detector.I0: 10 cm N2
# Detector.I1: 25 cm N2
# Detector.I2: 25 cm N2
# Element.symbol: As
# Element.edge: K
# Element.reference: As
# Element.reference_material: As2O3
# Facility.name: NSLS-II
# Facility.energy: 3.0
# Facility.current: 400.2
# Facility.mode: top-off
# Facility.GUP: 301027
# Facility.SAF: 310583
# Facility.cycle: 2023-2
# Mono.name: Si(111)
# Mono.d_spacing: 3.13519
# Mono.encoder_resolution: 0.0000050 deg/ct
# Mono.angle_offset: 16.0754 deg
# Mono.scan_mode: pseudo channel cut
# Mono.scan_type: step
# Mono.direction: forward in energy
# Sample.name: NaAsO2
# Sample.prep: powder in PEG pellet
# Sample.x: 115.008 mm
# Sample.y: 114.461 mm
# Sample.SDD_position: 170.000 mm
# Scan.experimenters: Bruce Ravel
# Scan.edge_energy: 11866.7
# Scan.start_time: 2023-07-10T16:28:30
# Scan.end_time: 2023-07-10T16:36:25
# Scan.transient_id: 90286
# Scan.uid: 9d345a00-46ad-417e-9e0f-1206f92e57f2
# Scan.plot_hint: ln(I0/It)  --  ln($5/$6)
# Column.1: energy eV
# Column.2: requested_energy eV
# Column.3: measurement_time seconds
# Column.4: xmu
# Column.5: I0 nA
# Column.6: It nA
# Column.7: Ir nA
# ///////////
# sample courtesy Evan Jahrman, NIST
# -----------
# energy  requested_energy  measurement_time  xmu  I0  It  Ir
  11666.689  11666.700  0.500  -0.037501  64.974  67.4569  45.8213
  11696.742  11696.700  0.500  -0.042075  64.6177  67.3945  45.9043
  11726.767  11726.700  0.500  -0.046634  64.2044  67.2695  45.9444
  11756.744  11756.700  0.500  -0.051140  63.6848  67.0264  45.8802
  11786.744  11786.700  0.500  -0.055402  63.3927  67.0039  45.9691
  11816.748  11816.700  0.500  -0.059444  62.9567  66.8126  45.8862
  11838.692  11838.700  0.500  -0.061515  62.6929  66.6706  45.6963
  11844.696  11844.700  0.500  -0.061562  62.6029  66.5779  45.5457
  11850.694  11850.700  0.500  -0.061148  62.5142  66.4561  45.2732
  11856.687  11856.700  0.500  -0.059365  62.2699  66.0785  44.625
  11857.555  11857.600  0.500  -0.058888  62.3709  66.1541  44.581
  11858.467  11858.500  0.500  -0.058273  62.3697  66.1122  44.4431
  11859.385  11859.400  0.500  -0.057466  62.1639  65.8408  44.1205
  11860.285  11860.300  0.500  -0.056536  62.0266  65.6344  43.8255
  11861.185  11861.200  0.500  -0.055362  62.1321  65.6688  43.6509
  11862.085  11862.100  0.500  -0.053957  62.228  65.6779  43.4321
  11862.973  11863.000  0.500  -0.052218  62.1264  65.4568  43.0055
  11863.873  11863.900  0.500  -0.049889  62.1793  65.3601  42.5897
  11864.773  11864.800  0.500  -0.046896  62.278  65.2681  42.0802
  11865.699  11865.700  0.500  -0.042525  62.3008  65.0073  41.297
  11866.593  11866.600  0.500  -0.036526  62.2774  64.5942  40.2311
  11867.494  11867.500  0.500  -0.027183  62.2594  63.975  38.7123
  11868.401  11868.400  0.500  -0.012718  62.2368  63.0334  36.5831
  11869.278  11869.300  0.500  0.011337  62.2205  61.519  33.5766
  11870.185  11870.200  0.500  0.058729  62.1786  58.6321  29.0778
  11871.099  11871.100  0.500  0.156608  62.0286  53.0369  22.8756
  11872.013  11872.000  0.500  0.318312  62.0669  45.146  16.503
  11872.896  11872.900  0.500  0.446142  62.1568  39.7861  12.8753
  11873.804  11873.800  0.500  0.429386  62.1706  40.4674  13.0599
  11874.688  11874.700  0.500  0.349137  62.1564  43.8387  14.9698
  11875.596  11875.600  0.500  0.295288  62.1378  46.2502  16.4932
  11876.492  11876.500  0.500  0.263513  62.1221  47.7314  17.5289
  11877.407  11877.400  0.500  0.232551  62.0972  49.2126  18.7568
  11878.321  11878.300  0.500  0.204545  62.0748  50.5921  20.2001
  11879.200  11879.200  0.500  0.189038  62.1132  51.4146  21.3799
  11880.096  11880.100  0.500  0.186618  62.2621  51.6627  22.0233
  11880.993  11881.000  0.500  0.192222  62.2438  51.3589  21.9984
  11881.878  11881.900  0.500  0.198499  62.2228  51.0202  21.4961
  11882.799  11882.800  0.500  0.199864  62.2061  50.937  20.8642
  11883.721  11883.700  0.500  0.194148  62.1617  51.1924  20.58
  11884.606  11884.600  0.500  0.183328  61.8578  51.4963  20.6963
  11885.504  11885.500  0.500  0.169905  61.5015  51.8916  21.0887
  11886.395  11886.400  0.500  0.156812  61.62  52.6768  21.6585
  11887.287  11887.300  0.500  0.146607  61.9543  53.5058  22.1642
  11888.191  11888.200  0.500  0.140789  62.0985  53.9433  22.4477
  11889.095  11889.100  0.500  0.139242  62.1177  54.0435  22.5965
  11890.012  11890.000  0.500  0.139889  62.1202  54.0107  22.743
  11890.904  11890.900  0.500  0.140801  62.1099  53.9526  22.9439
  11891.710  11891.700  0.500  0.140908  62.1032  53.9409  23.1127
  11894.714  11894.710  0.500  0.134951  62.0709  54.235  23.8326
  11897.923  11897.900  0.500  0.121815  62.0247  54.9112  24.6024
  11901.282  11901.260  0.500  0.113570  61.7243  55.0977  24.7759
  11904.796  11904.780  0.500  0.106734  61.904  55.6372  25.2198
  11908.486  11908.480  0.500  0.100440  61.9092  55.9931  25.6018
  11912.363  11912.350  0.500  0.100438  61.8505  55.9401  25.5685
  11916.416  11916.400  0.500  0.104934  61.5634  55.4307  24.9277
  11920.620  11920.610  0.500  0.111017  61.7367  55.2496  24.6059
  11925.019  11924.990  0.500  0.118722  61.7081  54.8002  24.2085
  11929.545  11929.550  0.500  0.124299  61.6366  54.4323  23.7204
  11934.285  11934.280  0.500  0.129214  61.3174  53.8849  23.3429
  11939.191  11939.180  0.500  0.132301  61.4698  53.8523  23.2507
  11944.268  11944.250  0.500  0.133727  61.4243  53.7357  23.1351
  11949.493  11949.490  0.500  0.133076  61.3549  53.71  23.1023
  11954.908  11954.910  0.500  0.130220  61.2751  53.7935  23.321
  11960.491  11960.490  0.500  0.124710  61.1973  54.0221  23.5381
  11966.229  11966.250  0.500  0.119689  61.1141  54.2202  23.7572
  11972.146  11972.180  0.500  0.115435  61.0134  54.3617  23.9149
  11978.345  11978.280  0.500  0.111994  60.916  54.462  24.0542
  11984.512  11984.550  0.500  0.109968  60.8104  54.4777  24.1902
  11990.962  11990.990  0.500  0.108476  60.7287  54.4858  24.3063
  11997.581  11997.600  0.500  0.106986  60.6313  54.4795  24.3392
  12004.365  12004.390  0.500  0.106211  60.5406  54.4402  24.2755
  12011.338  12011.350  0.500  0.106063  60.4554  54.3717  24.1399
  12018.446  12018.470  0.500  0.106323  60.3697  54.2805  24.0078
  12025.763  12025.770  0.500  0.107572  60.2687  54.122  23.8834
  12033.235  12033.250  0.500  0.108337  60.1644  53.9871  23.7958
  12040.886  12040.890  0.500  0.108213  60.0508  53.8917  23.7647
  12048.711  12048.700  0.500  0.106602  58.2448  52.3553  23.1465
  12056.674  12056.690  0.500  0.104518  59.816  53.8797  23.9064
  12064.843  12064.850  0.500  0.101722  59.7201  53.944  23.9999
  12073.164  12073.170  0.500  0.098919  59.6038  53.9901  24.04
  12081.667  12081.670  0.500  0.096366  59.4869  54.0219  24.0995
  12090.348  12090.350  0.500  0.094575  59.3557  53.9994  24.1463
  12099.176  12099.190  0.500  0.093291  59.2603  53.9819  24.1797
  12108.196  12108.200  0.500  0.091599  59.1492  53.9719  24.214
  12117.395  12117.390  0.500  0.089605  59.0256  53.9667  24.2749
  12126.756  12126.750  0.500  0.088024  58.8895  53.9273  24.2962
  12136.273  12136.270  0.500  0.086649  58.7758  53.8974  24.292
  12145.991  12145.970  0.500  0.085342  58.6425  53.8454  24.2367
  12155.873  12155.850  0.500  0.084215  58.5102  53.7846  24.1714
  12165.906  12165.890  0.500  0.082950  58.372  53.7255  24.1571
  12176.124  12176.100  0.500  0.081342  58.2309  53.6818  24.205
  12186.496  12186.490  0.500  0.079249  58.2567  53.8182  24.3559
  12197.054  12197.050  0.500  0.076944  58.1079  53.8045  24.4215
  12207.786  12207.780  0.500  0.074637  57.9885  53.818  24.464
  12218.693  12218.680  0.500  0.072337  57.8459  53.8092  24.4726
  12229.757  12229.750  0.500  0.070340  57.6997  53.7805  24.4758
  12241.004  12240.990  0.500  0.068300  57.4958  53.7  24.4825
  12252.443  12252.410  0.500  0.066226  57.388  53.7106  24.5561
  12263.995  12263.990  0.500  0.064106  56.3006  52.8046  24.2265
  12275.765  12275.750  0.500  0.062055  57.0822  53.6476  24.656
  12287.697  12287.680  0.500  0.059884  56.882  53.5756  24.6479
  12299.804  12299.780  0.500  0.057992  56.5761  53.3884  24.5605
  12312.061  12312.050  0.500  0.056154  56.5845  53.4947  24.6181
  12324.494  12324.490  0.500  0.054232  56.2991  53.3272  24.5717
  12337.119  12337.110  0.500  0.052209  56.2415  53.3805  24.6562
  12349.910  12349.890  0.500  0.049917  55.9503  53.226  24.655
  12362.880  12362.850  0.500  0.047600  55.9228  53.3232  24.7669
  12376.005  12375.980  0.500  0.045181  55.7649  53.3014  24.8016
  12389.292  12389.280  0.500  0.042977  55.6125  53.2731  24.8187
  12402.776  12402.750  0.500  0.040737  55.4381  53.2251  24.8241
  12416.430  12416.400  0.500  0.038356  55.2327  53.1543  24.8368
  12430.229  12430.210  0.500  0.036158  55.0521  53.0971  24.8692
  12444.221  12444.200  0.500  0.033842  54.9179  53.0904  24.9326
  12458.367  12458.360  0.500  0.031467  54.7332  53.0377  24.9594
  12472.716  12472.690  0.500  0.029284  54.5572  52.9827  24.973
  12487.226  12487.190  0.500  0.026926  54.1504  52.7118  24.8705
  12501.901  12501.860  0.500  0.024828  54.2039  52.8747  24.9771
  12516.719  12516.700  0.500  0.022514  54.0086  52.8062  24.9893
  12531.758  12531.720  0.500  0.020184  53.8153  52.74  25.017
  12546.950  12546.900  0.500  0.017694  53.639  52.6983  25.0592
  12562.311  12562.260  0.500  0.015273  53.4463  52.6362  25.0858
  12577.826  12577.790  0.500  0.012840  53.2333  52.5541  25.0957
  12593.519  12593.490  0.500  0.010420  53.0595  52.5094  25.1156
  12609.383  12609.360  0.500  0.007994  52.8615  52.4406  25.1243
  12625.475  12625.410  0.500  0.005483  52.6554  52.3675  25.1384
  12641.651  12641.620  0.500  0.003200  52.4253  52.2578  25.1452
  12658.051  12658.010  0.500  0.000735  52.2787  52.2402  25.1979
  12674.626  12674.570  0.500  -0.001634  52.0771  52.1623  25.2106
  12691.316  12691.300  0.500  -0.004167  51.872  52.0886  25.2203
  12708.233  12708.200  0.500  -0.006688  51.6602  52.0069  25.2182
  12719.579  12719.560  0.500  -0.008198  51.5236  51.9477  25.2197