Folder: webxdiviewer/xdidata/Data/Au

Note: xdidata/README.md
# bmm-standards
A pretty webpage for BMM's collection of common XAFS materials

[BMM's common materials collection](./BMM-standards.html)

Plotting of the data will happen soon.

Periodic table adapted from [some guy named Daniel](https://codepen.io/gooseofmusic/pen/PjKdNQ)

[This](https://www.coderstool.com/scss-to-css) is a helpful tool for
dealing with Sassy CSS.

File: Au-L3-GoldFoil.xdi
# XDI/1.0 BlueSky/1.10.0 BMM/2023-1.0-py310-tiled
# Beamline.name: BMM (06BM) -- Beamline for Materials Measurement (NIST)
# Beamline.xray_source: NSLS-II three-pole wiggler
# Beamline.collimation: paraboloid mirror, 5 nm Rh on 30 nm Pt
# Beamline.focusing: not in use
# Beamline.harmonic_rejection: flat mirror, Pt stripe, pitch = 7.0 mrad relative to beam
# Beamline.software: Bluesky 1.10.0, Ophyd 1.7.0, DataBroker 2.0.0b13, Python 3.10.8, 2023-1.0-py310-tiled
# Detector.I0: 10 cm N2
# Detector.I1: 25 cm N2
# Detector.I2: 25 cm N2
# Element.symbol: Au
# Element.edge: L3
# Element.reference: Au
# Element.reference_material: Au foil
# Facility.name: NSLS-II
# Facility.energy: 3.0
# Facility.current: 399.4
# Facility.mode: top-off
# Facility.GUP: 301027
# Facility.SAF: 310583
# Facility.cycle: 2023-2
# Mono.name: Si(111)
# Mono.d_spacing: 3.13519
# Mono.encoder_resolution: 0.0000050 deg/ct
# Mono.angle_offset: 16.0754 deg
# Mono.scan_mode: pseudo channel cut
# Mono.scan_type: step
# Mono.direction: forward in energy
# Sample.name: Au foil
# Sample.prep: reference foil
# Sample.x: 109.138 mm
# Sample.y: 153.150 mm
# Sample.SDD_position: 205.000 mm
# Scan.experimenters: Bruce Ravel
# Scan.edge_energy: 11918.7
# Scan.start_time: 2023-05-28T19:30:02
# Scan.end_time: 2023-05-28T19:38:16
# Scan.transient_id: 78952
# Scan.uid: 448e41d8-d49b-4999-a03e-3ee0f38b68c3
# Scan.plot_hint: ln(It/Ir)  --  ln($6/$7)
# Column.1: energy eV
# Column.2: requested_energy eV
# Column.3: measurement_time seconds
# Column.4: xmu
# Column.5: I0 nA
# Column.6: It nA
# Column.7: Ir nA
# ///////////
# standard reference foil
# -----------
# energy  requested_energy  measurement_time  xmu  I0  It  Ir
  11718.696  11718.700  0.500  0.505607  64.0026  107.544  64.8642
  11748.794  11748.700  0.500  0.501827  63.5603  106.924  64.734
  11778.716  11778.700  0.500  0.498241  63.2429  106.501  64.7097
  11808.733  11808.700  0.500  0.494771  62.9463  106.135  64.7117
  11838.784  11838.700  0.500  0.491472  62.5599  105.598  64.5972
  11868.738  11868.700  0.500  0.488799  62.1592  105.037  64.426
  11890.670  11890.700  0.500  0.488414  61.8647  104.621  64.1956
  11896.654  11896.700  0.500  0.489258  61.7462  104.449  64.0359
  11902.663  11902.700  0.500  0.491091  61.184  103.509  63.3433
  11908.665  11908.700  0.500  0.495566  61.6013  104.242  63.5071
  11909.554  11909.600  0.500  0.496698  61.5858  104.215  63.4188
  11910.449  11910.500  0.500  0.498048  61.5704  104.198  63.3228
  11911.357  11911.400  0.500  0.499728  61.567  104.191  63.2122
  11912.258  11912.300  0.500  0.501600  61.5297  104.14  63.0631
  11913.154  11913.200  0.500  0.503942  61.5155  104.116  62.9012
  11914.062  11914.100  0.500  0.506904  61.4911  104.08  62.6934
  11914.976  11915.000  0.500  0.510862  61.4403  104.005  62.4006
  11915.878  11915.900  0.500  0.515902  61.2225  103.628  61.8621
  11916.799  11916.800  0.500  0.522722  60.8391  102.991  61.0637
  11917.695  11917.700  0.500  0.531977  60.8742  103.051  60.5363
  11918.598  11918.600  0.500  0.544587  61.1897  103.579  60.0843
  11919.501  11919.500  0.500  0.561703  61.3694  103.889  59.2411
  11920.391  11920.400  0.500  0.584625  61.3896  103.934  57.924
  11921.269  11921.300  0.500  0.611593  61.3865  103.936  56.3838
  11922.179  11922.200  0.500  0.638804  61.3719  103.913  54.8582
  11923.082  11923.100  0.500  0.660683  61.3542  103.882  53.655
  11923.998  11924.000  0.500  0.675340  61.3434  103.867  52.8666
  11924.895  11924.900  0.500  0.683666  61.3245  103.843  52.4163
  11925.799  11925.800  0.500  0.687824  61.3133  103.821  52.1876
  11926.709  11926.700  0.500  0.688802  61.2972  103.804  52.1282
  11927.594  11927.600  0.500  0.688661  61.2846  103.781  52.1236
  11928.486  11928.500  0.500  0.688862  61.2712  103.762  52.1037
  11929.384  11929.400  0.500  0.690309  61.2516  103.727  52.0111
  11930.301  11930.300  0.500  0.693255  61.2443  103.718  51.8536
  11931.199  11931.200  0.500  0.697215  61.2154  103.682  51.6307
  11932.104  11932.100  0.500  0.701720  61.1951  103.635  51.3753
  11933.008  11933.000  0.500  0.706239  61.1433  103.558  51.1053
  11933.907  11933.900  0.500  0.710080  60.8167  103.007  50.6389
  11934.787  11934.800  0.500  0.712740  60.4834  102.444  50.228
  11935.686  11935.700  0.500  0.714576  60.6327  102.7  50.2613
  11936.598  11936.600  0.500  0.715548  60.9466  103.239  50.476
  11937.485  11937.500  0.500  0.716346  61.0451  103.405  50.5167
  11938.403  11938.400  0.500  0.717269  61.046  103.425  50.48
  11939.309  11939.300  0.500  0.718734  61.0468  103.425  50.4062
  11940.208  11940.200  0.500  0.720537  61.0368  103.404  50.3053
  11941.096  11941.100  0.500  0.722082  61.0155  103.381  50.2165
  11941.996  11942.000  0.500  0.723685  61.0088  103.375  50.1327
  11942.896  11942.900  0.500  0.726086  60.9908  103.347  49.999
  11943.684  11943.700  0.500  0.729736  60.9712  103.319  49.8034
  11946.709  11946.710  0.500  0.754610  60.9254  103.241  48.5433
  11949.915  11949.900  0.500  0.757198  60.9015  103.204  48.4005
  11953.285  11953.260  0.500  0.740178  60.8424  103.127  49.1943
  11956.775  11956.780  0.500  0.735880  60.8053  103.069  49.3786
  11960.485  11960.480  0.500  0.732241  60.9161  103.268  49.6545
  11964.353  11964.350  0.500  0.740043  60.8754  103.213  49.2425
  11968.410  11968.400  0.500  0.753229  60.8286  103.154  48.5694
  11972.614  11972.610  0.500  0.756711  60.7579  103.055  48.354
  11976.965  11976.990  0.500  0.748902  60.6958  102.967  48.6915
  11981.606  11981.550  0.500  0.742736  60.6318  102.863  48.9434
  11986.288  11986.280  0.500  0.738841  60.5469  102.739  49.0751
  11991.187  11991.180  0.500  0.732569  60.4659  102.624  49.3287
  11996.228  11996.250  0.500  0.731026  60.4023  102.53  49.3595
  12001.474  12001.490  0.500  0.734237  60.3384  102.447  49.1613
  12006.887  12006.910  0.500  0.740677  60.2789  102.359  48.8037
  12012.481  12012.490  0.500  0.741483  60.1847  102.23  48.7031
  12018.226  12018.250  0.500  0.737833  60.1213  102.138  48.8369
  12024.189  12024.180  0.500  0.735376  60.0282  102  48.8914
  12030.254  12030.280  0.500  0.734960  59.9568  101.893  48.8603
  12036.558  12036.550  0.500  0.733240  59.8612  101.75  48.8757
  12042.988  12042.990  0.500  0.729340  59.7502  101.59  48.9894
  12049.615  12049.600  0.500  0.726345  59.2538  100.762  48.7361
  12056.376  12056.390  0.500  0.726780  59.5728  101.336  48.9923
  12063.342  12063.350  0.500  0.728663  59.4698  101.189  48.829
  12070.480  12070.470  0.500  0.729470  59.3719  101.04  48.7179
  12077.766  12077.770  0.500  0.729385  59.2796  100.907  48.6578
  12085.253  12085.250  0.500  0.728541  59.1746  100.756  48.6263
  12092.895  12092.890  0.500  0.728405  58.9866  100.46  48.4899
  12100.719  12100.700  0.500  0.726583  58.9783  100.472  48.5839
  12108.687  12108.690  0.500  0.722135  58.8661  100.303  48.7187
  12116.852  12116.850  0.500  0.719783  58.7617  100.159  48.7634
  12125.181  12125.170  0.500  0.718913  58.6454  99.9764  48.7167
  12133.695  12133.670  0.500  0.719377  58.5467  99.8583  48.6365
  12142.362  12142.350  0.500  0.721280  58.4225  99.6682  48.4517
  12151.203  12151.190  0.500  0.722594  58.3077  99.5073  48.3099
  12160.198  12160.200  0.500  0.720392  58.1717  99.2999  48.3155
  12169.394  12169.390  0.500  0.715980  58.0602  99.1423  48.4521
  12178.759  12178.750  0.500  0.712461  57.9303  98.9391  48.5233
  12188.281  12188.270  0.500  0.711777  57.8038  98.7528  48.4651
  12197.967  12197.970  0.500  0.710658  57.6671  98.5537  48.4215
  12207.844  12207.850  0.500  0.709837  57.5393  98.3802  48.3759
  12217.893  12217.890  0.500  0.710584  57.4159  98.1846  48.2437
  12228.116  12228.100  0.500  0.710498  57.2827  98.0055  48.1598
  12238.505  12238.490  0.500  0.707417  57.0227  97.5934  48.1053
  12249.070  12249.050  0.500  0.703759  56.9726  97.536  48.2533
  12259.784  12259.780  0.500  0.702042  56.8246  97.3078  48.2231
  12270.687  12270.680  0.500  0.700911  56.5144  96.8185  48.0349
  12281.761  12281.750  0.500  0.699270  56.5283  96.8713  48.14
  12292.987  12292.990  0.500  0.698633  56.269  96.46  47.9661
  12304.412  12304.410  0.500  0.698113  56.3969  96.7276  48.1243
  12315.998  12315.990  0.500  0.696721  56.2501  96.4922  48.074
  12327.764  12327.750  0.500  0.694345  56.0663  96.2297  48.0573
  12339.692  12339.680  0.500  0.691054  55.9359  96.0273  48.1143
  12351.777  12351.780  0.500  0.689168  55.7858  95.8037  48.0929
  12364.079  12364.050  0.500  0.688144  55.4961  95.3439  47.9111
  12376.512  12376.490  0.500  0.687133  55.469  95.3359  47.9555
  12389.118  12389.110  0.500  0.685804  55.319  95.1127  47.9068
  12401.904  12401.890  0.500  0.684119  55.15  94.856  47.8581
  12414.858  12414.850  0.500  0.681927  54.9642  94.5725  47.8198
  12428.028  12427.980  0.500  0.679512  54.7872  94.3103  47.8025
  12441.300  12441.280  0.500  0.677155  54.6417  94.1095  47.8133
  12454.764  12454.750  0.500  0.675122  54.4479  93.8004  47.7532
  12468.433  12468.400  0.500  0.673665  54.1811  93.3827  47.6099
  12482.254  12482.210  0.500  0.672222  54.0689  93.2201  47.5956
  12496.236  12496.200  0.500  0.670586  53.928  93.0207  47.5716
  12510.407  12510.360  0.500  0.668620  53.7359  92.7265  47.5145
  12524.719  12524.690  0.500  0.666193  53.553  92.4479  47.4868
  12539.230  12539.190  0.500  0.663870  53.089  91.6899  47.207
  12553.925  12553.860  0.500  0.661539  53.1809  91.8899  47.4204
  12568.738  12568.700  0.500  0.659450  52.9939  91.5995  47.3694
  12583.745  12583.720  0.500  0.657560  52.8013  91.3006  47.3041
  12598.934  12598.900  0.500  0.656099  52.6058  91.006  47.2204
  12614.292  12614.260  0.500  0.654119  52.4129  90.7105  47.1604
  12629.813  12629.790  0.500  0.651803  52.2109  90.4028  47.1094
  12645.547  12645.490  0.500  0.649350  52.0219  90.1106  47.0725
  12661.411  12661.360  0.500  0.647051  51.8167  89.7993  47.0178
  12677.442  12677.410  0.500  0.644735  51.6148  89.4935  46.9663
  12693.654  12693.620  0.500  0.642603  51.4042  89.1734  46.8982
  12710.064  12710.010  0.500  0.640584  51.1942  88.8456  46.8203
  12726.601  12726.570  0.500  0.638488  50.9794  88.5119  46.7423
  12743.380  12743.300  0.500  0.636354  50.7853  88.2141  46.6845
  12760.240  12760.200  0.500  0.634011  50.5663  87.8723  46.6127
  12771.623  12771.560  0.500  0.632422  50.4197  87.6456  46.5664

File: Au-L3-GoldOxide.xdi
# XDI/1.0 BlueSky/1.10.0 BMM/2023-1.0-py310-tiled
# Beamline.name: BMM (06BM) -- Beamline for Materials Measurement (NIST)
# Beamline.xray_source: NSLS-II three-pole wiggler
# Beamline.collimation: paraboloid mirror, 5 nm Rh on 30 nm Pt
# Beamline.focusing: not in use
# Beamline.harmonic_rejection: flat mirror, Pt stripe, pitch = 7.0 mrad relative to beam
# Beamline.software: Bluesky 1.10.0, Ophyd 1.7.0, DataBroker 2.0.0b13, Python 3.10.8, 2023-1.0-py310-tiled
# Detector.I0: 10 cm N2
# Detector.I1: 25 cm N2
# Detector.I2: 25 cm N2
# Element.symbol: Au
# Element.edge: L3
# Element.reference: Au
# Element.reference_material: Au foil
# Facility.name: NSLS-II
# Facility.energy: 3.0
# Facility.current: 399.8
# Facility.mode: top-off
# Facility.GUP: 301027
# Facility.SAF: 310583
# Facility.cycle: 2023-2
# Mono.name: Si(111)
# Mono.d_spacing: 3.13519
# Mono.encoder_resolution: 0.0000050 deg/ct
# Mono.angle_offset: 16.0754 deg
# Mono.scan_mode: pseudo channel cut
# Mono.scan_type: step
# Mono.direction: forward in energy
# Sample.name: Au2O3, Gold oxide
# Sample.prep: powder on tape
# Sample.x: 145.711 mm
# Sample.y: 114.376 mm
# Sample.SDD_position: 205.000 mm
# Scan.experimenters: Bruce Ravel
# Scan.edge_energy: 11918.7
# Scan.start_time: 2023-06-27T18:32:17
# Scan.end_time: 2023-06-27T18:40:09
# Scan.transient_id: 85227
# Scan.uid: 93ec9f91-1c27-4b2c-805a-3bbb17040b49
# Scan.plot_hint: ln(I0/It)  --  ln($5/$6)
# Column.1: energy eV
# Column.2: requested_energy eV
# Column.3: measurement_time seconds
# Column.4: xmu
# Column.5: I0 nA
# Column.6: It nA
# Column.7: Ir nA
# ///////////
# sample courtesy Martin Stennett, University of Sheffield
# -----------
# energy  requested_energy  measurement_time  xmu  I0  It  Ir
  11718.666  11718.700  0.500  0.928191  64.564  25.5201  16.2334
  11748.722  11748.700  0.500  0.917614  64.0544  25.5879  16.3253
  11778.758  11778.700  0.500  0.907470  63.5631  25.6505  16.4217
  11808.745  11808.700  0.500  0.897412  63.3201  25.8108  16.5762
  11838.741  11838.700  0.500  0.888624  62.9336  25.8797  16.6678
  11868.720  11868.700  0.500  0.882911  62.5435  25.8666  16.7009
  11890.676  11890.700  0.500  0.887188  62.221  25.6234  16.5434
  11896.672  11896.700  0.500  0.892786  62.1391  25.4468  16.4173
  11902.675  11902.700  0.500  0.903737  61.3953  24.8684  16.0134
  11908.671  11908.700  0.500  0.927643  61.9678  24.5073  15.7121
  11909.548  11909.600  0.500  0.933640  61.9678  24.3608  15.6028
  11910.455  11910.500  0.500  0.940779  62.1278  24.25  15.5091
  11911.369  11911.400  0.500  0.949210  62.1175  24.0424  15.354
  11912.277  11912.300  0.500  0.958862  62.1064  23.8072  15.1768
  11913.178  11913.200  0.500  0.970667  62.0787  23.5173  14.9588
  11914.068  11914.100  0.500  0.985042  62.0654  23.1767  14.7027
  11914.964  11915.000  0.500  1.003570  62.033  22.7394  14.3766
  11915.884  11915.900  0.500  1.027624  61.9409  22.1659  13.9505
  11916.774  11916.800  0.500  1.058569  61.5778  21.3646  13.3664
  11917.702  11917.700  0.500  1.100899  61.3499  20.4033  12.663
  11918.598  11918.600  0.500  1.156274  61.5705  19.3736  11.9002
  11919.507  11919.500  0.500  1.232645  61.8914  18.0426  10.9206
  11920.391  11920.400  0.500  1.334023  61.9604  16.3213  9.686987
  11921.276  11921.300  0.500  1.459522  61.9707  14.3987  8.334369
  11922.179  11922.200  0.500  1.597410  61.9606  12.5421  7.050917
  11923.107  11923.100  0.500  1.716654  61.9447  11.1294  6.089320
  11924.004  11924.000  0.500  1.793932  61.9333  10.2998  5.529264
  11924.889  11924.900  0.500  1.836124  61.9148  9.871341  5.236469
  11925.805  11925.800  0.500  1.856279  61.9055  9.672919  5.096797
  11926.696  11926.700  0.500  1.861007  61.8978  9.626100  5.059100
  11927.582  11927.600  0.500  1.858151  61.8783  9.650595  5.070818
  11928.492  11928.500  0.500  1.854513  61.8745  9.685164  5.088548
  11929.409  11929.400  0.500  1.855251  61.8544  9.674864  5.079999
  11930.301  11930.300  0.500  1.862382  61.8406  9.603976  5.032119
  11931.205  11931.200  0.500  1.874831  61.8171  9.481562  4.950523
  11932.097  11932.100  0.500  1.891768  61.8093  9.321142  4.845278
  11932.990  11933.000  0.500  1.910098  61.7695  9.145959  4.731657
  11933.895  11933.900  0.500  1.927753  61.66  8.969976  4.619716
  11934.787  11934.800  0.500  1.942345  61.2085  8.775303  4.504331
  11935.693  11935.700  0.500  1.953164  61.0905  8.664134  4.437372
  11936.610  11936.600  0.500  1.960131  61.3655  8.642719  4.418916
  11937.516  11937.500  0.500  1.964748  61.6264  8.639474  4.413213
  11938.409  11938.400  0.500  1.969031  61.6595  8.607181  4.395042
  11939.296  11939.300  0.500  1.974868  61.6636  8.557660  4.362896
  11940.196  11940.200  0.500  1.982726  61.6512  8.488963  4.321634
  11941.090  11941.100  0.500  1.990828  61.6377  8.418617  4.278321
  11942.008  11942.000  0.500  1.998106  61.6055  8.353207  4.237137
  11942.908  11942.900  0.500  2.006844  61.5945  8.279051  4.192580
  11943.709  11943.700  0.500  2.018320  61.5894  8.183914  4.132134
  11946.721  11946.710  0.500  2.112426  61.5555  7.444784  3.669560
  11949.915  11949.900  0.500  2.146393  61.5112  7.190975  3.514405
  11953.279  11953.260  0.500  2.081047  61.4536  7.669377  3.815197
  11956.806  11956.780  0.500  2.061616  61.4059  7.813790  3.909340
  11960.485  11960.480  0.500  2.048839  61.3606  7.908427  3.971812
  11964.378  11964.350  0.500  2.076562  61.305  7.685228  3.835591
  11968.417  11968.400  0.500  2.129790  61.2543  7.280825  3.583495
  11972.621  11972.610  0.500  2.151193  61.182  7.118234  3.485274
  11977.015  11976.990  0.500  2.121839  61.1179  7.322603  3.611657
  11981.556  11981.550  0.500  2.096461  61.0492  7.502372  3.724002
  11986.295  11986.280  0.500  2.079589  60.9875  7.622310  3.798563
  11991.193  11991.180  0.500  2.054790  60.9113  7.803933  3.914390
  11996.240  11996.250  0.500  2.046249  60.8421  7.861936  3.952124
  12001.505  12001.490  0.500  2.058399  60.7798  7.759047  3.888306
  12006.925  12006.910  0.500  2.084954  60.6993  7.545702  3.758375
  12012.475  12012.490  0.500  2.092244  60.6288  7.482192  3.719539
  12018.251  12018.250  0.500  2.079907  60.5492  7.565129  3.774221
  12024.158  12024.180  0.500  2.071062  60.4711  7.622500  3.812035
  12030.260  12030.280  0.500  2.070622  60.3913  7.615787  3.810933
  12036.520  12036.550  0.500  2.066040  60.4948  7.663879  3.840023
  12043.032  12042.990  0.500  2.052361  60.386  7.755458  3.901574
  12049.609  12049.600  0.500  2.040827  59.352  7.711088  3.890715
  12056.383  12056.390  0.500  2.041888  60.1837  7.810851  3.940036
  12063.361  12063.350  0.500  2.049645  60.1049  7.740347  3.897040
  12070.461  12070.470  0.500  2.054461  60.0085  7.690802  3.867151
  12077.785  12077.770  0.500  2.055854  59.9127  7.667833  3.856075
  12085.265  12085.250  0.500  2.053344  59.7992  7.672547  3.862938
  12092.888  12092.890  0.500  2.054026  59.5133  7.630661  3.840341
  12100.725  12100.700  0.500  2.049230  59.6029  7.678890  3.869712
  12108.694  12108.690  0.500  2.033142  59.5027  7.790300  3.944034
  12116.858  12116.850  0.500  2.025136  59.3917  7.838269  3.977524
  12125.200  12125.170  0.500  2.022783  59.2689  7.840495  3.981876
  12133.650  12133.670  0.500  2.025650  59.177  7.805923  3.962143
  12142.298  12142.350  0.500  2.034472  59.0562  7.721572  3.913213
  12151.197  12151.190  0.500  2.041033  58.9404  7.656025  3.872258
  12160.205  12160.200  0.500  2.034629  58.7944  7.686135  3.895083
  12169.407  12169.390  0.500  2.018839  58.6889  7.794452  3.967947
  12178.766  12178.750  0.500  2.005542  58.5533  7.880533  4.026323
  12188.294  12188.270  0.500  2.004019  58.4252  7.875281  4.024193
  12197.980  12197.970  0.500  2.000969  58.2872  7.880673  4.033008
  12207.870  12207.850  0.500  1.999364  58.1655  7.876851  4.033353
  12217.906  12217.890  0.500  2.003590  58.0361  7.826188  4.004016
  12228.122  12228.100  0.500  2.005162  57.9132  7.797353  3.988973
  12238.512  12238.490  0.500  1.995329  57.6179  7.834235  4.018355
  12249.070  12249.050  0.500  1.982411  57.6134  7.935485  4.084296
  12259.803  12259.780  0.500  1.976769  57.4619  7.959402  4.104428
  12270.707  12270.680  0.500  1.973684  57.1714  7.943623  4.101738
  12281.774  12281.750  0.500  1.969050  57.1642  7.979523  4.126397
  12293.007  12292.990  0.500  1.967845  56.5589  7.904541  4.088595
  12304.419  12304.410  0.500  1.966687  56.8352  7.952363  4.114964
  12315.991  12315.990  0.500  1.963866  56.6773  7.952668  4.120992
  12327.757  12327.750  0.500  1.955913  56.4891  7.989555  4.148675
  12339.705  12339.680  0.500  1.944789  56.3582  8.060200  4.198929
  12351.797  12351.780  0.500  1.938643  56.1959  8.086538  4.220951
  12364.059  12364.050  0.500  1.936175  55.9736  8.074450  4.219199
  12376.492  12376.490  0.500  1.934230  55.8882  8.077830  4.224282
  12389.145  12389.110  0.500  1.930378  55.7308  8.086172  4.232388
  12401.911  12401.890  0.500  1.925686  55.5542  8.098456  4.245088
  12414.865  12414.850  0.500  1.918808  55.381  8.128916  4.272072
  12428.008  12427.980  0.500  1.911099  55.2054  8.165854  4.299294
  12441.327  12441.280  0.500  1.903458  55.0563  8.206269  4.330984
  12454.777  12454.750  0.500  1.897212  54.8043  8.219887  4.345576
  12468.419  12468.400  0.500  1.893042  54.6608  8.232625  4.360265
  12482.241  12482.210  0.500  1.888961  54.4904  8.240518  4.369291
  12496.250  12496.200  0.500  1.884754  54.3404  8.252487  4.383277
  12510.373  12510.360  0.500  1.878547  54.1532  8.275258  4.401881
  12524.726  12524.690  0.500  1.871183  53.9676  8.307849  4.430314
  12539.223  12539.190  0.500  1.863516  53.716  8.332763  4.452127
  12553.898  12553.860  0.500  1.856356  53.5949  8.373715  4.484583
  12568.711  12568.700  0.500  1.849559  53.4018  8.400445  4.507517
  12583.759  12583.720  0.500  1.844833  53.2102  8.409968  4.522407
  12598.941  12598.900  0.500  1.839974  53.0092  8.418998  4.532183
  12614.299  12614.260  0.500  1.834405  52.8152  8.435038  4.548963
  12629.813  12629.790  0.500  1.827442  52.5959  8.458699  4.572367
  12645.561  12645.490  0.500  1.819473  52.4323  8.499868  4.603535
  12661.383  12661.360  0.500  1.812200  52.24  8.530493  4.631036
  12677.449  12677.410  0.500  1.804758  52.1912  8.586199  4.671029
  12693.676  12693.620  0.500  1.798060  51.9823  8.609296  4.692900
  12710.036  12710.010  0.500  1.791954  51.7748  8.627448  4.712660
  12726.615  12726.570  0.500  1.785885  51.5611  8.644146  4.728906
  12743.345  12743.300  0.500  1.779262  51.3625  8.668071  4.752382
  12760.240  12760.200  0.500  1.772266  51.1517  8.693108  4.776568
  12771.602  12771.560  0.500  1.766995  51.0096  8.714774  4.795422