Folder: webxdiviewer/xdidata/Data/Au (part 2)

File: Au-L3-GoldThiosulfate.xdi
# XDI/1.0 BlueSky/1.10.0 BMM/2023-1.0-py310-tiled
# Beamline.name: BMM (06BM) -- Beamline for Materials Measurement (NIST)
# Beamline.xray_source: NSLS-II three-pole wiggler
# Beamline.collimation: paraboloid mirror, 5 nm Rh on 30 nm Pt
# Beamline.focusing: not in use
# Beamline.harmonic_rejection: flat mirror, Pt stripe, pitch = 7.0 mrad relative to beam
# Beamline.software: Bluesky 1.10.0, Ophyd 1.7.0, DataBroker 2.0.0b13, Python 3.10.8, 2023-1.0-py310-tiled
# Detector.I0: 10 cm N2
# Detector.I1: 25 cm N2
# Detector.I2: 25 cm N2
# Element.symbol: Au
# Element.edge: L3
# Element.reference: Au
# Element.reference_material: Au foil
# Facility.name: NSLS-II
# Facility.energy: 3.0
# Facility.current: 400.1
# Facility.mode: top-off
# Facility.GUP: 301027
# Facility.SAF: 310583
# Facility.cycle: 2023-2
# Mono.name: Si(111)
# Mono.d_spacing: 3.13519
# Mono.encoder_resolution: 0.0000050 deg/ct
# Mono.angle_offset: 16.0754 deg
# Mono.scan_mode: pseudo channel cut
# Mono.scan_type: step
# Mono.direction: forward in energy
# Sample.name: AuH2Na3O6S4+, gold thiosulfate
# Sample.prep: powder in BN pellet
# Sample.x: 145.711 mm
# Sample.y: 114.376 mm
# Sample.SDD_position: 205.000 mm
# Scan.experimenters: Bruce Ravel
# Scan.edge_energy: 11918.7
# Scan.start_time: 2023-06-27T18:07:18
# Scan.end_time: 2023-06-27T18:15:05
# Scan.transient_id: 85212
# Scan.uid: f97a18b2-3d75-4ed1-9e51-ecd86bfe2644
# Scan.plot_hint: ln(I0/It)  --  ln($5/$6)
# Column.1: energy eV
# Column.2: requested_energy eV
# Column.3: measurement_time seconds
# Column.4: xmu
# Column.5: I0 nA
# Column.6: It nA
# Column.7: Ir nA
# ///////////
# Welcome to BMM
# -----------
# energy  requested_energy  measurement_time  xmu  I0  It  Ir
  11718.672  11718.700  0.500  0.860827  64.614  27.3196  17.3761
  11748.716  11748.700  0.500  0.850114  64.1157  27.4009  17.4846
  11778.795  11778.700  0.500  0.839458  63.6116  27.4767  17.5874
  11808.788  11808.700  0.500  0.829124  63.3706  27.6569  17.7592
  11838.753  11838.700  0.500  0.819583  62.9922  27.7553  17.8775
  11868.732  11868.700  0.500  0.811419  62.6044  27.8106  17.9514
  11890.670  11890.700  0.500  0.809575  62.2626  27.7098  17.8864
  11896.672  11896.700  0.500  0.811443  62.188  27.6249  17.8209
  11902.681  11902.700  0.500  0.815769  61.4505  27.1795  17.5005
  11908.671  11908.700  0.500  0.825822  62.0311  27.1619  17.4137
  11909.548  11909.600  0.500  0.828408  62.0123  27.0835  17.3425
  11910.461  11910.500  0.500  0.831378  62.0039  26.9995  17.2669
  11911.375  11911.400  0.500  0.834874  62.0013  26.9042  17.178
  11912.283  11912.300  0.500  0.838982  61.976  26.783  17.0722
  11913.178  11913.200  0.500  0.843794  61.9675  26.6507  16.9511
  11914.068  11914.100  0.500  0.849614  61.9432  26.4856  16.8009
  11914.964  11915.000  0.500  0.856800  61.9097  26.2818  16.6118
  11915.878  11915.900  0.500  0.866024  61.8253  26.005  16.3624
  11916.787  11916.800  0.500  0.877867  61.4674  25.5501  15.9806
  11917.689  11917.700  0.500  0.892999  61.2206  25.0653  15.5561
  11918.598  11918.600  0.500  0.913163  61.4457  24.6553  15.1328
  11919.488  11919.500  0.500  0.939527  61.7455  24.1309  14.5974
  11920.404  11920.400  0.500  0.977573  61.8383  23.265  13.7876
  11921.294  11921.300  0.500  1.029566  61.8343  22.0849  12.7586
  11922.197  11922.200  0.500  1.100430  61.8391  20.5756  11.5546
  11923.088  11923.100  0.500  1.185982  61.8135  18.8807  10.3335
  11923.979  11924.000  0.500  1.265994  61.806  17.4267  9.357935
  11924.901  11924.900  0.500  1.321316  61.7942  16.4857  8.744480
  11925.799  11925.800  0.500  1.346892  61.7793  16.0655  8.465297
  11926.709  11926.700  0.500  1.357372  61.7608  15.8933  8.351141
  11927.594  11927.600  0.500  1.367780  61.7529  15.7267  8.261021
  11928.480  11928.500  0.500  1.380865  61.7393  15.5189  8.152028
  11929.390  11929.400  0.500  1.392594  61.7176  15.3325  8.048413
  11930.301  11930.300  0.500  1.400526  61.7012  15.2073  7.965882
  11931.205  11931.200  0.500  1.405932  61.6853  15.1214  7.892245
  11932.116  11932.100  0.500  1.410406  61.6653  15.049  7.818915
  11932.996  11933.000  0.500  1.413122  61.6392  15.0019  7.759017
  11933.882  11933.900  0.500  1.414260  61.5223  14.9564  7.703692
  11934.787  11934.800  0.500  1.413921  61.0786  14.8536  7.622942
  11935.680  11935.700  0.500  1.413270  60.9517  14.8324  7.594794
  11936.610  11936.600  0.500  1.412764  61.2161  14.9043  7.619812
  11937.503  11937.500  0.500  1.413438  61.4829  14.9591  7.642310
  11938.409  11938.400  0.500  1.416284  61.74  14.979  7.644883
  11939.309  11939.300  0.500  1.421653  61.7461  14.9003  7.595225
  11940.190  11940.200  0.500  1.428278  61.7381  14.8  7.532603
  11941.083  11941.100  0.500  1.434292  61.7154  14.7058  7.469506
  11941.983  11942.000  0.500  1.438925  61.7056  14.6355  7.424578
  11942.908  11942.900  0.500  1.441543  61.6953  14.5948  7.389276
  11943.709  11943.700  0.500  1.442749  61.6765  14.5728  7.357500
  11946.721  11946.710  0.500  1.451074  61.6419  14.4438  7.118067
  11949.928  11949.900  0.500  1.467317  61.5984  14.2011  6.938813
  11953.260  11953.260  0.500  1.472974  61.544  14.1085  7.018333
  11956.812  11956.780  0.500  1.474652  61.5011  14.075  7.040964
  11960.497  11960.480  0.500  1.484228  61.4516  13.9297  6.996634
  11964.359  11964.350  0.500  1.496978  61.3897  13.7394  6.854493
  11968.404  11968.400  0.500  1.503421  61.3419  13.6405  6.712835
  11972.639  11972.610  0.500  1.503349  61.2723  13.626  6.668286
  11977.008  11976.990  0.500  1.501085  61.2147  13.644  6.728879
  11981.550  11981.550  0.500  1.491112  61.1424  13.7645  6.831562
  11986.288  11986.280  0.500  1.476084  61.0771  13.958  6.955033
  11991.181  11991.180  0.500  1.464774  61.0071  14.1006  7.069574
  11996.234  11996.250  0.500  1.458583  60.9354  14.1715  7.124490
  12001.511  12001.490  0.500  1.455803  60.8714  14.196  7.115042
  12006.887  12006.910  0.500  1.453339  60.7933  14.2128  7.075411
  12012.494  12012.490  0.500  1.450802  60.728  14.2336  7.074073
  12018.559  12018.250  0.500  1.451941  60.628  14.1939  7.079040
  12024.189  12024.180  0.500  1.457507  60.5539  14.0979  7.049346
  12030.285  12030.280  0.500  1.465905  60.4721  13.9611  6.984078
  12036.564  12036.550  0.500  1.470312  60.3811  13.8788  6.952694
  12042.994  12042.990  0.500  1.465096  60.2842  13.929  7.004081
  12049.622  12049.600  0.500  1.453418  59.2602  13.8533  6.989686
  12056.389  12056.390  0.500  1.441822  60.0736  14.2072  7.166194
  12063.367  12063.350  0.500  1.435096  59.9921  14.2837  7.189563
  12070.473  12070.470  0.500  1.432787  59.9064  14.2963  7.188772
  12077.773  12077.770  0.500  1.432422  59.8036  14.2769  7.176035
  12085.253  12085.250  0.500  1.432104  59.7021  14.2572  7.174620
  12092.888  12092.890  0.500  1.432011  59.4158  14.1902  7.141491
  12100.713  12100.700  0.500  1.432798  59.4984  14.1987  7.154795
  12108.694  12108.690  0.500  1.434400  59.3933  14.151  7.162061
  12116.852  12116.850  0.500  1.433861  59.2863  14.1331  7.171078
  12125.168  12125.170  0.500  1.430144  59.168  14.1574  7.188492
  12133.682  12133.670  0.500  1.424898  59.0679  14.2078  7.211555
  12142.369  12142.350  0.500  1.419349  58.9439  14.2568  7.223915
  12151.197  12151.190  0.500  1.413596  58.8177  14.3084  7.237842
  12160.198  12160.200  0.500  1.408069  58.6778  14.3535  7.272641
  12169.394  12169.390  0.500  1.403616  58.5762  14.3926  7.324577
  12178.753  12178.750  0.500  1.400855  58.4416  14.3992  7.356390
  12188.268  12188.270  0.500  1.399947  58.3153  14.3811  7.351110
  12197.987  12197.970  0.500  1.399108  58.171  14.3576  7.346581
  12207.857  12207.850  0.500  1.397644  58.0575  14.3506  7.347162
  12217.893  12217.890  0.500  1.393961  57.923  14.3701  7.351255
  12228.096  12228.100  0.500  1.388836  57.7894  14.4107  7.371987
  12238.505  12238.490  0.500  1.383314  57.5014  14.4182  7.395876
  12249.063  12249.050  0.500  1.377817  57.4931  14.4956  7.462879
  12259.797  12259.780  0.500  1.372779  57.3432  14.5309  7.493538
  12270.694  12270.680  0.500  1.368021  57.0501  14.5255  7.498715
  12281.755  12281.750  0.500  1.363394  57.0407  14.5905  7.543403
  12293.007  12292.990  0.500  1.359853  56.6367  14.5386  7.521245
  12304.439  12304.410  0.500  1.356943  56.911  14.6515  7.584363
  12316.004  12315.990  0.500  1.353656  56.7495  14.6581  7.593683
  12327.744  12327.750  0.500  1.349985  56.5586  14.6625  7.614771
  12339.699  12339.680  0.500  1.345726  56.4243  14.6901  7.653726
  12351.810  12351.780  0.500  1.340877  56.2655  14.7199  7.682751
  12364.079  12364.050  0.500  1.335552  56.0396  14.7391  7.699332
  12376.499  12376.490  0.500  1.329907  55.9531  14.7997  7.738094
  12389.125  12389.110  0.500  1.324370  55.8043  14.8423  7.769690
  12401.924  12401.890  0.500  1.319155  55.6283  14.8729  7.797058
  12414.878  12414.850  0.500  1.314503  55.4532  14.8951  7.826231
  12427.994  12427.980  0.500  1.310131  55.2763  14.9127  7.852738
  12441.314  12441.280  0.500  1.305846  55.1139  14.9327  7.881773
  12454.784  12454.750  0.500  1.301460  54.8781  14.9342  7.896359
  12468.433  12468.400  0.500  1.296369  54.7207  14.9674  7.925130
  12482.234  12482.210  0.500  1.291028  54.5605  15.0035  7.955857
  12496.229  12496.200  0.500  1.285548  54.4127  15.0451  7.989568
  12510.400  12510.360  0.500  1.279808  54.2222  15.0787  8.021491
  12524.726  12524.690  0.500  1.273957  54.035  15.1148  8.058169
  12539.216  12539.190  0.500  1.268244  53.7848  15.131  8.085307
  12553.911  12553.860  0.500  1.262768  53.6576  15.1781  8.128628
  12568.745  12568.700  0.500  1.257379  53.4691  15.2065  8.160881
  12583.766  12583.720  0.500  1.252167  53.2743  15.2303  8.186288
  12598.913  12598.900  0.500  1.246849  53.0704  15.2529  8.210299
  12614.299  12614.260  0.500  1.241385  52.8784  15.281  8.239296
  12629.834  12629.790  0.500  1.235696  52.6558  15.3035  8.269899
  12645.505  12645.490  0.500  1.229712  52.4736  15.3421  8.310694
  12661.411  12661.360  0.500  1.223770  52.2892  15.3793  8.349969
  12677.449  12677.410  0.500  1.217554  52.0888  15.4158  8.385768
  12693.654  12693.620  0.500  1.211474  51.8855  15.4493  8.421129
  12710.036  12710.010  0.500  1.205540  51.6717  15.4772  8.454158
  12726.623  12726.570  0.500  1.199455  51.4582  15.5074  8.484523
  12743.338  12743.300  0.500  1.193600  51.2585  15.5379  8.518913
  12760.247  12760.200  0.500  1.187763  51.0412  15.5626  8.550152
  12771.588  12771.560  0.500  1.183794  50.9093  15.5841  8.576916