Folder: webxdiviewer/xdidata/Data/Ce

Note: xdidata/README.md
# bmm-standards
A pretty webpage for BMM's collection of common XAFS materials

[BMM's common materials collection](./BMM-standards.html)

Plotting of the data will happen soon.

Periodic table adapted from [some guy named Daniel](https://codepen.io/gooseofmusic/pen/PjKdNQ)

[This](https://www.coderstool.com/scss-to-css) is a helpful tool for
dealing with Sassy CSS.

File: Ce-L3-Ce0.67TiO3.xdi
# XDI/1.0 BlueSky/1.10.0 BMM/2023-1.0-py310-tiled
# Beamline.name: BMM (06BM) -- Beamline for Materials Measurement (NIST)
# Beamline.xray_source: NSLS-II three-pole wiggler
# Beamline.collimation: paraboloid mirror, 5 nm Rh on 30 nm Pt
# Beamline.focusing: not in use
# Beamline.harmonic_rejection: flat mirror, Si stripe, pitch = 7.0 mrad relative to beam
# Beamline.software: Bluesky 1.10.0, Ophyd 1.7.0, DataBroker 2.0.0b13, Python 3.10.8, 2023-1.0-py310-tiled
# Detector.I0: 10 cm N2
# Detector.I1: 25 cm N2
# Detector.I2: 25 cm N2
# Detector.fluorescence: SII Vortex ME4 (4-element silicon drift)
# Detector.deadtime_correction: Xspress3
# Element.symbol: Ce
# Element.edge: L3
# Element.reference: Ce
# Element.reference_material: CeO2
# Facility.name: NSLS-II
# Facility.energy: 3.0
# Facility.current: 400.6
# Facility.mode: top-off
# Facility.GUP: 123456
# Facility.SAF: 301027
# Facility.cycle: 2023-2
# Mono.name: Si(111)
# Mono.d_spacing: 3.13519
# Mono.encoder_resolution: 0.0000050 deg/ct
# Mono.angle_offset: 16.0754 deg
# Mono.scan_mode: pseudo channel cut
# Mono.scan_type: step
# Mono.direction: forward in energy
# Sample.name: Ce0.67TiO3
# Sample.prep: Powder in PEG pellet
# Sample.x: 142.329 mm
# Sample.y: 114.126 mm
# Sample.SDD_position: 45.000 mm
# Scan.experimenters: Bruce Ravel
# Scan.edge_energy: 5723.4
# Scan.start_time: 2023-05-06T10:47:23
# Scan.end_time: 2023-05-06T10:53:06
# Scan.transient_id: 74737
# Scan.uid: 3d018239-c5a4-4d74-8871-dddef20aeb52
# Scan.plot_hint: (Ce1+Ce2+Ce3+Ce4)/I0  --  ($8+$9+$10+$11)/$5
# Column.1: energy eV
# Column.2: requested_energy eV
# Column.3: measurement_time seconds
# Column.4: xmu
# Column.5: I0 nA
# Column.6: It nA
# Column.7: Ir nA
# Column.8: Ce1
# Column.9: Ce2
# Column.10: Ce3
# Column.11: Ce4
# ///////////
# sample courtesy Martin Stennett, University of Sheffield
# -----------
# energy  requested_energy  measurement_time  xmu  I0  It  Ir  Ce1  Ce2  Ce3  Ce4
  5523.403  5523.400  0.500  148.164  109.05  1.198621  0.088680  4029.68  4139.49  3983.55  4004.53
  5553.415  5553.400  0.500  151.533  110.133  1.307283  0.100829  4125.95  4369.61  4215.69  3977.56
  5583.411  5583.400  0.500  154.8  110.996  1.421176  0.114266  4258.05  4514.74  4244.76  4164.68
  5613.403  5613.400  0.500  158.015  111.563  1.537419  0.128537  4374.2  4544.79  4409.85  4299.79
  5643.388  5643.400  0.500  162.079  112.004  1.660933  0.144259  4471.82  4621.86  4628.01  4431.89
  5673.397  5673.400  0.500  170.438  112.238  1.785661  0.160949  4745.38  4968.07  4759.11  4657.03
  5695.393  5695.400  0.500  180.547  112.273  1.872624  0.173623  4961.83  5280.24  5066.31  4962.22
  5701.389  5701.400  0.500  190.691  112.28  1.892558  0.176634  5390.76  5531.37  5270.41  5218.35
  5707.390  5707.400  0.500  204.453  112.291  1.904566  0.178877  5713.33  5974.65  5644.65  5625.6
  5713.401  5713.400  0.500  240.313  112.294  1.893367  0.178969  6730.28  7168.23  6635.16  6452.02
  5714.890  5714.900  0.500  259.219  112.341  1.882819  0.178177  7137.45  7629.48  7259.52  7094.4
  5716.390  5716.400  0.500  287.675  112.346  1.855682  0.175644  7919.32  8510.98  7987.03  7901.88
  5717.890  5717.900  0.500  332.988  112.342  1.806453  0.171027  9247.22  9766.74  9311.82  9082.62
  5719.393  5719.400  0.500  404.763  112.359  1.738489  0.164430  11285.1  11676.9  11517.1  10999.8
  5720.893  5720.900  0.500  502.783  112.352  1.639561  0.154675  13944.8  14689.9  14045  13808.8
  5722.393  5722.400  0.500  691.629  112.344  1.445626  0.136376  19379  19880  19263.3  19178.1
  5723.894  5723.900  0.500  1043.1  112.333  1.131889  0.106217  29257.9  30249  29216.3  28451.5
  5725.394  5725.400  0.500  1419.43  112.316  0.840285  0.077477  39189.1  40988.9  40220.9  39025.4
  5726.895  5726.900  0.500  1521.2  112.329  0.764666  0.068851  42199.3  44251.6  42797  41626.5
  5728.398  5728.400  0.500  1339.68  112.302  0.882306  0.078405  37055.1  38791.8  37777.4  36824.3
  5729.900  5729.900  0.500  1149.38  112.305  1.058413  0.093299  32589.1  34592.7  31211.4  30687.8
  5731.398  5731.400  0.500  928.281  112.281  1.217743  0.106645  25704.2  26858.2  26099.6  25566.1
  5732.905  5732.900  0.500  790.355  112.253  1.351332  0.119429  21812.2  23049.7  22192.8  21665.3
  5734.405  5734.400  0.500  713.605  112.236  1.430487  0.127788  19986.1  20518.5  19939.9  19647.5
  5735.902  5735.900  0.500  714.599  112.232  1.446303  0.129010  19893  20783.7  20072.9  19451.4
  5737.400  5737.400  0.500  734.543  112.201  1.429570  0.127021  20204.1  21497.3  20807.5  19907.8
  5738.903  5738.900  0.500  752.628  112.159  1.415828  0.125921  20670.2  21825.5  21180  20738.5
  5740.403  5740.400  0.500  763.087  112.162  1.410889  0.126678  21267.8  21997.8  21361.2  20962.7
  5741.903  5741.900  0.500  766.767  112.158  1.411712  0.128439  21271  22074.9  21541.2  21111.8
  5743.403  5743.400  0.500  770.385  112.111  1.417624  0.130701  21322.9  22206.1  21651.5  21187.9
  5744.900  5744.900  0.500  767.094  112.122  1.425279  0.132335  21202.1  22193  21632.4  20980.8
  5746.405  5746.400  0.500  764.479  112.478  1.435906  0.134048  21465.3  22186.1  21406.1  20929.7
  5747.904  5747.900  0.500  770.698  112.412  1.435868  0.134567  21615.5  22329.1  21684.4  21006.8
  5750.401  5750.390  0.500  793.53  112.361  1.422915  0.133943  21829.2  22956.7  22306.9  22068.8
  5753.515  5753.520  0.500  834.252  112.346  1.394594  0.131802  23016.4  24325.8  23281.9  23100.7
  5756.819  5756.820  0.500  858.073  112.292  1.379218  0.130558  23657.5  25046.9  24026.7  23623.5
  5760.298  5760.290  0.500  854.525  112.242  1.394834  0.132283  23788  24721.5  23785.5  23618.3
  5763.935  5763.930  0.500  828.19  112.141  1.432027  0.135860  23104.8  24024.8  23273  22471.4
  5767.747  5767.740  0.500  804.877  112.164  1.468764  0.139363  22484.3  23446.1  22365  21982.8
  5771.736  5771.730  0.500  794.378  112.108  1.496783  0.142790  21972.9  22997.8  22301  21784.6
  5775.901  5775.890  0.500  789.041  112.068  1.521042  0.145987  21696.9  23014.8  21959.9  21754.7
  5780.218  5780.210  0.500  780.496  112.016  1.539224  0.148748  21803.8  22589.6  21683.7  21351.3
  5784.718  5784.710  0.500  782.258  111.981  1.556102  0.151719  21643  22839.9  21929.8  21185.2
  5789.386  5789.380  0.500  801.05  111.892  1.555249  0.152497  22105.3  23369.3  22323.3  21832.8
  5794.237  5794.230  0.500  839.443  111.813  1.538465  0.151508  23315  24375.2  23322.3  22847.8
  5799.246  5799.240  0.500  859.467  111.778  1.533328  0.152215  23829.4  24997.9  23851.9  23390.4
  5804.438  5804.430  0.500  851.256  111.672  1.559316  0.155772  23221.9  24600.4  23891.7  23347.2
  5809.789  5809.780  0.500  832.172  111.582  1.598838  0.160065  22952.7  24007  23409.5  22486.6
  5815.315  5815.310  0.500  830.145  111.488  1.627714  0.164084  23018.4  23837.7  22964  22730.7
  5821.018  5821.010  0.500  827.034  111.321  1.648271  0.167054  22564.3  24180.2  22790  22531.6
  5826.888  5826.880  0.500  835.635  111.195  1.664341  0.169631  23025.4  23882.8  23204.2  22805.8
  5832.928  5832.920  0.500  845.268  111.001  1.678885  0.172426  23032.1  24268.3  23312.3  23213.1
  5839.145  5839.140  0.500  850.616  110.806  1.686414  0.174340  23380.8  24536.5  23308.5  23027.1
  5845.522  5845.520  0.500  861.88  110.587  1.697868  0.177033  23298.3  24695.9  23889.1  23429.6
  5852.084  5852.080  0.500  876.84  110.27  1.712824  0.180034  23997.8  24911.8  23985.1  23794.8
  5858.817  5858.810  0.500  872.102  109.874  1.736397  0.183817  23775.3  24571.7  24135.1  23339.4
  5865.717  5865.710  0.500  859.652  109.227  1.770949  0.189086  23206.9  24328.4  23402.5  22959
  5872.786  5872.780  0.500  874.718  87.7082  1.445741  0.155696  19265.6  19870.8  18862.8  18720.7
  5880.026  5880.020  0.500  878.447  109.961  1.827272  0.197786  23929.5  25052.3  23954.3  23659
  5887.447  5887.440  0.500  887.662  109.248  1.832105  0.200185  23898  25275.3  24145.4  23656.9
  5895.028  5895.020  0.500  895.877  108.66  1.855138  0.204318  23934.1  25337.4  24331.7  23743.1
  5902.789  5902.780  0.500  891.37  107.946  1.876428  0.208175  23929.7  24862  23919.3  23508.7
  5910.723  5910.710  0.500  891.264  106.767  1.893320  0.211665  23379.6  24814.8  23969  22994.2
  5918.830  5918.810  0.500  893.328  106.674  1.931700  0.218090  23502.7  24680.6  23728.8  23382.4
  5927.094  5927.080  0.500  891.982  106.067  1.950013  0.222521  23720.7  24434.4  23323.5  23131.2
  5935.541  5935.520  0.500  908.886  106.032  1.972974  0.227187  23656.7  25019.1  24146.4  23548.8
  5944.128  5944.140  0.500  927.27  98.4933  1.857845  0.215890  22503.1  23669.2  22688.4  22469.2
  5952.924  5952.920  0.500  927.991  104.83  2.014369  0.235943  23974  25279.4  24067.3  23961.1
  5961.875  5961.880  0.500  923.86  103.535  2.028905  0.239840  23703.1  24841.8  23916  23190.4
  5971.000  5971.010  0.500  929.757  102.271  2.046321  0.244377  23569.9  24568.7  23610.8  23337.5
  5980.304  5980.310  0.500  932.01  100.84  2.058761  0.248488  23233.1  24426.4  23250.3  23074.1
  5989.770  5989.780  0.500  956.123  83.0736  1.727064  0.210926  19720.8  20712.7  19706.7  19288.3
  5999.411  5999.420  0.500  948.522  99.596  2.103260  0.258741  23560.2  24380.3  23615.5  22912.9
  6009.226  6009.240  0.500  952.427  98.0804  2.110781  0.262393  23158.7  24029.8  23027.9  23198
  6019.217  6019.220  0.500  963.164  96.6536  2.120649  0.266098  23250  23806.7  23212  22824.6
  6029.372  6029.380  0.500  967.651  95.6297  2.141675  0.271944  22833.9  24278  22990.9  22433.3
  6039.700  6039.710  0.500  978.012  94.2385  2.154744  0.276520  22878.7  23953.6  22854.7  22479.3
  6050.221  6050.210  0.500  973.28  92.8268  2.165531  0.280781  22390.5  23399.1  22309  22247.9
  6060.867  6060.880  0.500  984.781  91.1616  2.169805  0.284400  22171.2  23307.7  22423.9  21871.4
  6071.704  6071.720  0.500  989.429  89.7085  2.179520  0.288611  22040.6  22850.4  22219.9  21649.3
  6082.726  6082.740  0.500  992.775  88.2573  2.190537  0.293119  21624.3  22821.2  21754.2  21419.9
  6093.910  6093.920  0.500  997.789  86.79  2.198619  0.297720  21368  22556.7  21493.9  21179.5
  6105.292  6105.280  0.500  1007.04  85.2334  2.205813  0.302092  21316.8  22259.6  21262.5  20994.3
  6116.792  6116.810  0.500  1003.13  83.6414  2.213521  0.306442  20865.1  21770  20848.1  20419.7
  6128.495  6128.510  0.500  1018.8  81.9501  2.216649  0.310517  20818.7  21556.8  20729.8  20385.5
  6140.370  6140.380  0.500  1023.31  80.1581  2.215198  0.313641  20319  21148.4  20340.5  20218.4
  6152.415  6152.430  0.500  1020.43  78.0486  2.193628  0.313906  19776.7  20655.9  19834.1  19376.7

File: Ce-L3-CeriumDioxide.xdi
# XDI/1.0 BlueSky/1.10.0 BMM/2023-1.0-py310-tiled
# Beamline.name: BMM (06BM) -- Beamline for Materials Measurement (NIST)
# Beamline.xray_source: NSLS-II three-pole wiggler
# Beamline.collimation: paraboloid mirror, 5 nm Rh on 30 nm Pt
# Beamline.focusing: not in use
# Beamline.harmonic_rejection: flat mirror, Si stripe, pitch = 7.0 mrad relative to beam
# Beamline.software: Bluesky 1.10.0, Ophyd 1.7.0, DataBroker 2.0.0b13, Python 3.10.8, 2023-1.0-py310-tiled
# Detector.I0: 10 cm N2
# Detector.I1: 25 cm N2
# Detector.I2: 25 cm N2
# Element.symbol: Ce
# Element.edge: L3
# Element.reference: Ce
# Element.reference_material: CeO2
# Facility.name: NSLS-II
# Facility.energy: 3.0
# Facility.current: 399.4
# Facility.mode: top-off
# Facility.GUP: 301027
# Facility.SAF: 310583
# Facility.cycle: 2023-2
# Mono.name: Si(111)
# Mono.d_spacing: 3.13519
# Mono.encoder_resolution: 0.0000050 deg/ct
# Mono.angle_offset: 16.0754 deg
# Mono.scan_mode: pseudo channel cut
# Mono.scan_type: step
# Mono.direction: forward in energy
# Sample.name: CeO2
# Sample.prep: PEG pellet
# Sample.x: 109.138 mm
# Sample.y: 153.150 mm
# Sample.SDD_position: 205.000 mm
# Scan.experimenters: Bruce Ravel
# Scan.edge_energy: 5723.4
# Scan.start_time: 2023-05-28T11:35:38
# Scan.end_time: 2023-05-28T11:42:04
# Scan.transient_id: 78644
# Scan.uid: e13d55a0-0798-448d-a14f-21bb283d69b5
# Scan.plot_hint: ln(It/Ir)  --  ln($6/$7)
# Column.1: energy eV
# Column.2: requested_energy eV
# Column.3: measurement_time seconds
# Column.4: xmu
# Column.5: I0 nA
# Column.6: It nA
# Column.7: Ir nA
# ///////////
# sample courtesy Martin Stennett, University of Sheffield
# -----------
# energy  requested_energy  measurement_time  xmu  I0  It  Ir
  5523.408  5523.400  0.500  3.252136  111.163  49.9966  1.934442
  5543.417  5543.400  0.500  3.216906  112.074  51.2305  2.053261
  5563.412  5563.400  0.500  3.182389  112.972  52.4182  2.174646
  5583.408  5583.400  0.500  3.148511  113.797  53.6486  2.302384
  5603.408  5603.400  0.500  3.115174  114.522  54.8016  2.431591
  5623.407  5623.400  0.500  3.082446  115.165  55.9624  2.565706
  5643.384  5643.400  0.500  3.050155  114.831  56.6334  2.681679
  5663.392  5663.400  0.500  3.018256  115.315  57.7137  2.821415
  5683.399  5683.400  0.500  2.986784  115.672  58.7378  2.963287
  5695.396  5695.400  0.500  2.968306  115.922  59.3512  3.050074
  5699.392  5699.400  0.500  2.962617  115.984  59.5276  3.076592
  5703.387  5703.400  0.500  2.956675  116.049  59.7691  3.107485
  5707.401  5707.400  0.500  2.950839  116.094  59.925  3.133827
  5711.399  5711.400  0.500  2.945479  116.161  60.1331  3.161609
  5713.689  5713.700  0.500  2.942666  116.218  60.2544  3.176914
  5714.288  5714.300  0.500  2.942189  116.192  60.2934  3.180485
  5714.891  5714.900  0.500  2.941395  116.192  60.3144  3.184117
  5715.490  5715.500  0.500  2.940940  116.214  60.3566  3.187799
  5716.094  5716.100  0.500  2.940484  116.21  60.3732  3.190127
  5716.689  5716.700  0.500  2.939955  116.207  60.4006  3.193267
  5717.293  5717.300  0.500  2.939499  116.203  60.4286  3.196201
  5717.891  5717.900  0.500  2.939272  116.196  60.407  3.195783
  5718.494  5718.500  0.500  2.939363  116.192  60.4434  3.197420
  5719.094  5719.100  0.500  2.939527  116.201  60.4993  3.199853
  5719.695  5719.700  0.500  2.939821  116.187  60.4933  3.198593
  5720.295  5720.300  0.500  2.940814  116.2  60.5045  3.196014
  5720.897  5720.900  0.500  2.941643  116.171  60.5686  3.196746
  5721.498  5721.500  0.500  2.942043  116.203  60.6006  3.197156
  5722.093  5722.100  0.500  2.942054  116.218  60.5819  3.196133
  5722.699  5722.700  0.500  2.942684  116.207  60.6312  3.196723
  5723.295  5723.300  0.500  2.944637  116.173  60.6885  3.193498
  5723.898  5723.900  0.500  2.947316  116.206  60.698  3.185455
  5724.495  5724.500  0.500  2.951465  116.199  60.7324  3.174063
  5725.094  5725.100  0.500  2.956964  116.229  60.7739  3.158816
  5725.701  5725.700  0.500  2.965042  116.194  60.766  3.132990
  5726.299  5726.300  0.500  2.975135  116.214  60.8097  3.103761
  5726.896  5726.900  0.500  2.984737  116.22  60.8551  3.076395
  5727.495  5727.500  0.500  2.992330  116.218  60.8213  3.051428
  5728.100  5728.100  0.500  2.996740  116.187  60.8537  3.039619
  5728.701  5728.700  0.500  3.000369  116.225  60.8855  3.030193
  5729.299  5729.300  0.500  3.004638  116.203  60.922  3.019092
  5729.901  5729.900  0.500  3.009146  116.225  60.9696  3.007862
  5730.505  5730.500  0.500  3.012893  116.211  60.9626  2.996269
  5731.098  5731.100  0.500  3.015731  116.253  60.9891  2.989078
  5731.696  5731.700  0.500  3.016283  116.228  61.049  2.990363
  5732.299  5732.300  0.500  3.014452  116.265  61.058  2.996282
  5732.903  5732.900  0.500  3.009734  116.259  61.1145  3.013237
  5733.501  5733.500  0.500  3.004465  116.237  61.1071  3.028791
  5734.100  5734.100  0.500  2.999659  116.258  61.1636  3.046197
  5734.704  5734.700  0.500  2.996451  116.252  61.1339  3.054499
  5735.305  5735.300  0.500  2.995266  116.255  61.1699  3.059918
  5735.900  5735.900  0.500  2.995778  116.255  61.1912  3.059422
  5736.500  5736.500  0.500  2.997413  116.265  61.2445  3.057081
  5737.103  5737.100  0.500  2.999381  116.265  61.2574  3.051715
  5737.704  5737.700  0.500  3.000750  116.247  61.308  3.050054
  5738.300  5738.300  0.500  3.001170  116.248  61.3167  3.049208
  5738.902  5738.900  0.500  2.999917  116.277  61.3398  3.054184
  5739.505  5739.500  0.500  2.997616  116.268  61.3836  3.063402
  5740.106  5740.100  0.500  2.994250  116.285  61.4108  3.075094
  5740.701  5740.700  0.500  2.989831  116.286  61.4522  3.090794
  5741.305  5741.300  0.500  2.984312  116.259  61.4484  3.107708
  5741.907  5741.900  0.500  2.977887  116.258  61.4853  3.129616
  5742.508  5742.500  0.500  2.971140  116.293  61.5512  3.154181
  5743.103  5743.100  0.500  2.965624  116.318  61.571  3.172648
  5743.701  5743.700  0.500  2.960740  116.315  61.5915  3.189246
  5744.306  5744.300  0.500  2.957028  116.296  61.6011  3.201601
  5744.904  5744.900  0.500  2.953614  116.3  61.6103  3.213031
  5745.504  5745.500  0.500  2.950837  116.74  61.8529  3.234652
  5746.097  5746.100  0.500  2.948594  116.804  61.9006  3.244417
  5746.699  5746.700  0.500  2.946742  116.797  61.9576  3.253423
  5747.303  5747.300  0.500  2.944723  116.793  61.9865  3.261518
  5747.898  5747.900  0.500  2.943017  116.785  62.0362  3.269706
  5748.400  5748.400  0.500  2.941855  116.836  62.0519  3.274338
  5750.402  5750.390  0.500  2.936779  116.85  62.1252  3.294890
  5752.479  5752.460  0.500  2.933427  116.825  62.2021  3.310043
  5754.595  5754.600  0.500  2.931796  116.835  62.3034  3.320847
  5756.821  5756.820  0.500  2.929562  116.829  62.3696  3.331815
  5759.113  5759.110  0.500  2.927661  116.815  62.4892  3.344555
  5761.483  5761.480  0.500  2.926604  116.816  62.5872  3.353340
  5763.933  5763.930  0.500  2.924884  116.77  62.6807  3.364129
  5766.452  5766.450  0.500  2.923942  116.814  62.8203  3.374802
  5769.053  5769.050  0.500  2.922054  116.832  62.9367  3.387444
  5771.737  5771.730  0.500  2.918081  116.835  63.0315  3.406048
  5774.489  5774.480  0.500  2.913856  116.8  63.1565  3.427255
  5777.315  5777.310  0.500  2.908736  116.797  63.2676  3.450907
[...]
  5821.017  5821.010  0.500  2.842627  116.414  64.9042  3.782121
  5824.921  5824.910  0.500  2.837887  116.366  65.037  3.807868
  5828.889  5828.880  0.500  2.832694  116.277  65.1667  3.835327
  5832.931  5832.920  0.500  2.826642  116.23  65.3092  3.867045
  5837.057  5837.050  0.500  2.820280  116.079  65.366  3.895112
  5841.260  5841.250  0.500  2.814014  116.03  65.5313  3.929507
  5845.534  5845.520  0.500  2.807127  115.845  65.6239  3.962254
  5849.890  5849.880  0.500  2.800658  115.691  65.7089  3.993132
  5854.311  5854.300  0.500  2.794155  115.49  65.7675  4.022770
  5858.821  5858.810  0.500  2.787794  115.22  65.8117  4.051162
  5863.397  5863.390  0.500  2.781458  114.928  65.8255  4.077770
  5868.056  5868.050  0.500  2.774999  114.045  65.5294  4.085728
  5872.789  5872.780  0.500  2.768230  100.947  58.1702  3.651518
  5877.596  5877.590  0.500  2.762355  116.104  67.1238  4.238391
  5882.479  5882.470  0.500  2.755214  115.395  66.8568  4.251782
  5887.446  5887.440  0.500  2.748191  114.997  66.8535  4.281545
  5892.476  5892.470  0.500  2.741539  114.638  66.8775  4.311664
  5897.600  5897.590  0.500  2.735147  114.281  66.8993  4.340726
  5902.785  5902.780  0.500  2.728909  113.892  66.8551  4.365000
  5908.052  5908.050  0.500  2.722103  113.326  66.7126  4.385445
  5913.394  5913.390  0.500  2.714599  111.95  66.1693  4.382492
  5918.817  5918.810  0.500  2.707174  112.999  67.0162  4.471665
  5924.305  5924.300  0.500  2.699022  113.396  67.4547  4.537767
  5929.879  5929.870  0.500  2.691028  112.098  66.8982  4.536449
  5935.543  5935.520  0.500  2.683217  112.961  67.6476  4.623231
  5941.262  5941.250  0.500  2.675582  111.32  66.8962  4.606923
  5947.063  5947.050  0.500  2.668655  110.919  66.8795  4.637791
  5952.943  5952.920  0.500  2.660955  112.402  68.0298  4.754023
  5958.896  5958.870  0.500  2.653562  111.841  67.9265  4.782025
  5964.894  5964.900  0.500  2.645759  111.273  67.8056  4.810911
  5971.030  5971.010  0.500  2.637526  110.773  67.7269  4.845046
  5977.190  5977.190  0.500  2.629216  110.194  67.6261  4.878212
  5983.448  5983.450  0.500  2.621053  109.206  67.2505  4.890872
  5989.778  5989.780  0.500  2.612085  95.0178  58.7737  4.312893
  5996.182  5996.190  0.500  2.605396  110.393  68.4775  5.058697
  6002.661  6002.670  0.500  2.597800  109.377  68.1047  5.069523
  6009.226  6009.240  0.500  2.589784  108.765  67.978  5.100809
  6015.864  6015.870  0.500  2.581077  108.158  67.8602  5.136507
  6022.582  6022.590  0.500  2.572181  107.536  67.725  5.172079
  6029.370  6029.380  0.500  2.563371  106.934  67.6129  5.209212
  6036.266  6036.250  0.500  2.554205  106.237  67.4462  5.244212
  6043.186  6043.190  0.500  2.545254  105.546  67.2428  5.275413
  6050.221  6050.210  0.500  2.536972  104.798  67.0504  5.304060
  6057.285  6057.300  0.500  2.528414  103.837  66.6975  5.321496
  6064.466  6064.480  0.500  2.519945  102.85  66.3265  5.336900
  6071.723  6071.720  0.500  2.511112  102.017  66.0721  5.363595
  6079.039  6079.050  0.500  2.502259  101.421  65.9286  5.399539
  6086.438  6086.450  0.500  2.492931  100.447  65.5791  5.421246
  6093.902  6093.920  0.500  2.483522  99.4267  65.1269  5.434763
  6101.466  6101.480  0.500  2.474131  98.3382  64.7085  5.450796
  6109.100  6109.110  0.500  2.464877  97.1066  64.1615  5.454970
  6116.795  6116.810  0.500  2.456195  95.8772  63.6073  5.455008
  6124.577  6124.590  0.500  2.447176  94.5352  62.9625  5.448627
  6132.464  6132.450  0.500  2.437801  93.148  62.2979  5.441892
  6140.367  6140.380  0.500  2.427997  91.5802  61.5258  5.427395