Folder: webxdiviewer/xdidata/Data/Cu

Note: xdidata/README.md
# bmm-standards
A pretty webpage for BMM's collection of common XAFS materials

[BMM's common materials collection](./BMM-standards.html)

Plotting of the data will happen soon.

Periodic table adapted from [some guy named Daniel](https://codepen.io/gooseofmusic/pen/PjKdNQ)

[This](https://www.coderstool.com/scss-to-css) is a helpful tool for
dealing with Sassy CSS.

File: Cu-Covellite.xdi
# XDI/1.0 BlueSky/1.10.0 BMM/2023-1.0-py310-tiled
# Beamline.name: BMM (06BM) -- Beamline for Materials Measurement (NIST)
# Beamline.xray_source: NSLS-II three-pole wiggler
# Beamline.collimation: paraboloid mirror, 5 nm Rh on 30 nm Pt
# Beamline.focusing: not in use
# Beamline.harmonic_rejection: flat mirror, Pt stripe, pitch = 7.0 mrad relative to beam
# Beamline.software: Bluesky 1.10.0, Ophyd 1.7.0, DataBroker 2.0.0b13, Python 3.10.8, 2023-1.0-py310-tiled
# Detector.I0: 10 cm N2
# Detector.I1: 25 cm N2
# Detector.I2: 25 cm N2
# Element.symbol: Cu
# Element.edge: K
# Element.reference: Cu
# Element.reference_material: Cu foil
# Facility.name: NSLS-II
# Facility.energy: 3.0
# Facility.current: 400.8
# Facility.mode: top-off
# Facility.GUP: 123456
# Facility.SAF: 301027
# Facility.cycle: 2023-2
# Mono.name: Si(111)
# Mono.d_spacing: 3.13519
# Mono.encoder_resolution: 0.0000050 deg/ct
# Mono.angle_offset: 16.0754 deg
# Mono.scan_mode: pseudo channel cut
# Mono.scan_type: step
# Mono.direction: forward in energy
# Sample.name: CuS
# Sample.prep: powder on tape
# Sample.x: 116.329 mm
# Sample.y: 114.126 mm
# Sample.SDD_position: 205.000 mm
# Scan.experimenters: Bruce Ravel
# Scan.edge_energy: 8978.9
# Scan.start_time: 2023-05-06T13:03:00
# Scan.end_time: 2023-05-06T13:11:03
# Scan.transient_id: 74808
# Scan.uid: d45fcbf6-b359-49b2-98eb-745a7a7f281d
# Scan.plot_hint: ln(I0/It)  --  ln($5/$6)
# Column.1: energy eV
# Column.2: requested_energy eV
# Column.3: measurement_time seconds
# Column.4: xmu
# Column.5: I0 nA
# Column.6: It nA
# Column.7: Ir nA
# ///////////
# Welcome to BMM
# -----------
# energy  requested_energy  measurement_time  xmu  I0  It  Ir
  8778.910  8778.900  0.500  0.514488  122.984  73.5207  38.1166
  8808.994  8808.900  0.500  0.503238  122.357  73.9736  38.5998
  8839.054  8838.900  0.500  0.491824  121.751  74.4518  39.0978
  8868.924  8868.900  0.500  0.480871  121.144  74.8968  39.5771
  8898.950  8898.900  0.500  0.470414  120.513  75.2897  40.0194
  8928.908  8928.900  0.500  0.460462  119.896  75.6535  40.4123
  8950.899  8950.900  0.500  0.454676  119.447  75.8076  40.5613
  8956.890  8956.900  0.500  0.453686  119.36  75.8275  40.549
  8962.889  8962.900  0.500  0.453628  119.24  75.7556  40.4405
  8968.897  8968.900  0.500  0.455206  119.097  75.5455  40.1418
  8969.769  8969.800  0.500  0.455835  119.063  75.4766  40.0527
  8970.674  8970.700  0.500  0.456558  119.033  75.4025  39.9565
  8971.567  8971.600  0.500  0.457107  119.01  75.3467  39.8581
  8972.475  8972.500  0.500  0.458166  118.982  75.2495  39.7194
  8973.380  8973.400  0.500  0.459420  118.961  75.1418  39.5543
  8974.281  8974.300  0.500  0.460972  118.933  75.0075  39.3509
  8975.190  8975.200  0.500  0.463110  118.904  74.8288  39.0754
  8976.098  8976.100  0.500  0.465840  118.877  74.6079  38.7149
  8976.990  8977.000  0.500  0.469688  118.853  74.3065  38.2111
  8977.885  8977.900  0.500  0.475407  118.824  73.865  37.4432
  8978.791  8978.800  0.500  0.486623  118.801  73.0266  36.0139
  8979.693  8979.700  0.500  0.509395  118.773  71.3661  32.9634
  8980.603  8980.600  0.500  0.534859  118.729  69.5456  27.262
  8981.495  8981.500  0.500  0.556448  118.48  67.9174  21.2202
  8982.385  8982.400  0.500  0.609603  118.401  64.3589  17.7455
  8983.309  8983.300  0.500  0.688875  118.595  59.5513  16.1065
  8984.202  8984.200  0.500  0.771969  118.594  54.8025  15.2219
  8985.091  8985.100  0.500  0.834890  118.57  51.4501  14.4623
  8985.995  8986.000  0.500  0.888348  118.547  48.7625  13.2211
  8986.902  8986.900  0.500  0.941447  118.526  46.2327  11.8701
  8987.807  8987.800  0.500  0.977097  118.493  44.6011  10.9177
  8988.694  8988.700  0.500  0.981122  118.467  44.4122  10.2992
  8989.598  8989.600  0.500  0.982590  118.442  44.3375  9.552960
  8990.499  8990.500  0.500  1.001006  118.404  43.5147  8.548908
  8991.408  8991.400  0.500  1.021210  118.362  42.6292  7.507860
  8992.299  8992.300  0.500  1.034286  118.251  42.0358  6.589116
  8993.190  8993.200  0.500  1.043322  117.36  41.3439  5.809448
  8994.106  8994.100  0.500  1.056908  116.193  40.3805  5.200849
  8995.012  8995.000  0.500  1.077128  117.994  40.1854  4.936553
  8995.903  8995.900  0.500  1.098739  118.329  39.4381  4.853910
  8996.792  8996.800  0.500  1.113837  118.302  38.8382  4.948442
  8997.698  8997.700  0.500  1.118405  118.629  38.7679  5.159718
  8998.598  8998.600  0.500  1.117229  118.583  38.7986  5.368645
  8999.501  8999.500  0.500  1.115350  118.524  38.8522  5.516938
  9000.397  9000.400  0.500  1.115202  118.459  38.8365  5.541626
  9001.297  9001.300  0.500  1.114996  118.341  38.806  5.425579
  9002.204  9002.200  0.500  1.112730  117.704  38.6848  5.172646
  9003.104  9003.100  0.500  1.108994  116.065  38.2888  4.836508
  9003.890  9003.900  0.500  1.105275  117.678  38.9656  4.731186
  9006.921  9006.910  0.500  1.093656  118.386  39.6581  5.161688
  9010.125  9010.100  0.500  1.092229  116.748  39.1652  5.653871
  9013.482  9013.460  0.500  1.086466  118.305  39.9169  6.058082
  9016.996  9016.980  0.500  1.066576  118.165  40.6707  5.979311
  9020.701  9020.680  0.500  1.047427  116.006  40.6996  5.512955
  9024.561  9024.550  0.500  1.036627  118.051  41.8665  5.219409
  9028.624  9028.600  0.500  1.041923  117.96  41.6135  5.097603
  9032.831  9032.810  0.500  1.053044  117.849  41.1146  5.548096
  9037.173  9037.190  0.500  1.058987  117.722  40.8269  5.845579
  9041.783  9041.750  0.500  1.065391  116.402  40.1114  5.669334
  9046.461  9046.480  0.500  1.077209  117.454  39.9984  5.620201
  9051.377  9051.380  0.500  1.088835  117.361  39.5048  5.445755
  9056.446  9056.450  0.500  1.090441  117.258  39.4068  5.380800
  9061.681  9061.690  0.500  1.083911  117.069  39.601  5.210940
  9067.096  9067.110  0.500  1.075383  116.998  39.916  5.097374
  9072.683  9072.690  0.500  1.061804  116.89  40.4242  4.954747
  9078.449  9078.450  0.500  1.049936  116.753  40.8588  5.167903
  9084.388  9084.380  0.500  1.042022  116.588  41.1255  5.606925
  9090.471  9090.480  0.500  1.038688  116.455  41.2156  5.847618
  9096.745  9096.750  0.500  1.040796  116.316  41.0797  6.147661
  9103.184  9103.190  0.500  1.045057  115.283  40.5418  6.124691
  9109.793  9109.800  0.500  1.048305  115.993  40.6591  5.788563
  9116.598  9116.590  0.500  1.049564  115.837  40.5535  5.622423
  9123.551  9123.550  0.500  1.048013  115.68  40.5612  5.559014
  9130.682  9130.670  0.500  1.045594  115.509  40.5994  5.080134
  9137.980  9137.970  0.500  1.041836  115.291  40.6755  5.092474
  9145.449  9145.450  0.500  1.036441  115  40.7921  5.431898
  9153.100  9153.090  0.500  1.030073  114.935  41.0296  6.083327
  9160.905  9160.900  0.500  1.024422  114.909  41.2527  6.599563
  9168.904  9168.890  0.500  1.019728  112.853  40.7054  6.135222
  9177.056  9177.050  0.500  1.014999  114.508  41.4981  5.905655
  9185.394  9185.370  0.500  1.013500  114.434  41.5336  5.962254
  9193.893  9193.870  0.500  1.012041  114.142  41.4881  6.012941
  9202.561  9202.550  0.500  1.010268  113.881  41.4665  5.998984
  9211.418  9211.390  0.500  1.007516  113.677  41.5062  5.727151
  9220.414  9220.400  0.500  1.003411  113.826  41.7315  5.851268
  9229.607  9229.590  0.500  0.998633  113.606  41.8505  6.237769
  9238.963  9238.950  0.500  0.993494  113.387  41.9851  6.585434
  9248.496  9248.470  0.500  0.988500  113.169  42.1139  6.594585
  9258.176  9258.170  0.500  0.983934  112.938  42.2203  6.596473
  9268.073  9268.050  0.500  0.979380  112.701  42.3241  6.542244
  9278.106  9278.090  0.500  0.974645  112.502  42.4501  6.489286
  9288.314  9288.300  0.500  0.970436  112.211  42.5186  6.468689
  9298.709  9298.690  0.500  0.966087  110.474  42.0429  6.383860
  9309.263  9309.250  0.500  0.962596  111.815  42.7021  6.620930
  9319.998  9319.980  0.500  0.958382  111.517  42.7684  6.818587
  9330.898  9330.880  0.500  0.953925  111.281  42.8684  6.896127
  9341.967  9341.950  0.500  0.949019  110.998  42.9695  7.054482
  9353.203  9353.190  0.500  0.943889  110.732  43.0871  7.112667
  9364.633  9364.610  0.500  0.938778  110.466  43.204  7.128043
  9376.201  9376.190  0.500  0.933802  110.197  43.3135  7.130372
  9387.977  9387.950  0.500  0.928952  109.914  43.4123  7.142533
  9399.906  9399.880  0.500  0.924077  109.634  43.5133  7.184936
  9412.003  9411.980  0.500  0.919283  109.349  43.6089  7.303611
  9424.263  9424.250  0.500  0.914539  109.045  43.6945  7.444152
  9436.708  9436.690  0.500  0.909719  108.216  43.5718  7.474711
  9449.327  9449.310  0.500  0.904782  108.435  43.8761  7.604357
  9462.103  9462.090  0.500  0.899907  108.098  43.9533  7.702909
  9475.066  9475.050  0.500  0.894715  107.79  44.0566  7.778352
  9488.198  9488.180  0.500  0.889622  107.458  44.1449  7.818796
  9501.495  9501.480  0.500  0.884278  107.136  44.2483  7.844371
  9514.972  9514.950  0.500  0.878988  106.801  44.3441  7.890999
  9528.632  9528.600  0.500  0.873975  106.464  44.4263  8.008722
  9542.439  9542.410  0.500  0.868809  106.125  44.5143  8.115255
  9556.417  9556.400  0.500  0.863530  105.773  44.6013  8.199900
  9570.575  9570.560  0.500  0.858348  105.408  44.6783  8.282407
  9584.907  9584.890  0.500  0.852984  105.031  44.7579  8.371472
  9599.403  9599.390  0.500  0.847642  104.666  44.8415  8.449943
  9614.067  9614.060  0.500  0.842407  104.298  44.9182  8.515472
  9628.913  9628.900  0.500  0.836841  103.907  44.9998  8.579055
  9643.938  9643.920  0.500  0.831615  103.515  45.0648  8.650747
  9659.121  9659.100  0.500  0.826140  103.119  45.1389  8.736727
  9674.470  9674.460  0.500  0.820665  102.694  45.1997  8.819207
  9690.006  9689.990  0.500  0.815461  102.29  45.2569  8.908258
  9705.712  9705.690  0.500  0.809904  101.85  45.3134  8.992376
  9721.584  9721.560  0.500  0.804392  101.471  45.394  9.081776
  9737.640  9737.610  0.500  0.799077  101.073  45.4569  9.167377
  9753.825  9753.820  0.500  0.793489  100.646  45.5186  9.242461
  9770.225  9770.210  0.500  0.787813  100.13  45.5428  9.312790
  9786.798  9786.770  0.500  0.782309  99.8013  45.644  9.405127
  9803.512  9803.500  0.500  0.776736  99.1542  45.6015  9.468717
  9820.421  9820.400  0.500  0.770952  98.375  45.5056  9.525495
  9831.775  9831.760  0.500  0.767215  98.6524  45.8048  9.642061