Folder: webxdiviewer/xdidata/Data/Dy

Note: xdidata/README.md
# bmm-standards
A pretty webpage for BMM's collection of common XAFS materials

[BMM's common materials collection](./BMM-standards.html)

Plotting of the data will happen soon.

Periodic table adapted from [some guy named Daniel](https://codepen.io/gooseofmusic/pen/PjKdNQ)

[This](https://www.coderstool.com/scss-to-css) is a helpful tool for
dealing with Sassy CSS.

File: Dy-L3-DysprosiumOxide.xdi
# XDI/1.0 BlueSky/1.10.0 BMM/2023-1.0-py310-tiled
# Beamline.name: BMM (06BM) -- Beamline for Materials Measurement (NIST)
# Beamline.xray_source: NSLS-II three-pole wiggler
# Beamline.collimation: paraboloid mirror, 5 nm Rh on 30 nm Pt
# Beamline.focusing: not in use
# Beamline.harmonic_rejection: flat mirror, Si stripe, pitch = 7.0 mrad relative to beam
# Beamline.software: Bluesky 1.10.0, Ophyd 1.7.0, DataBroker 2.0.0b13, Python 3.10.8, 2023-1.0-py310-tiled
# Detector.I0: 10 cm N2
# Detector.I1: 25 cm N2
# Detector.I2: 25 cm N2
# Element.symbol: Dy
# Element.edge: L3
# Element.reference: Dy
# Element.reference_material: Dy2O3
# Facility.name: NSLS-II
# Facility.energy: 3.0
# Facility.current: 399.3
# Facility.mode: top-off
# Facility.GUP: 301027
# Facility.SAF: 310583
# Facility.cycle: 2023-2
# Mono.name: Si(111)
# Mono.d_spacing: 3.13519
# Mono.encoder_resolution: 0.0000050 deg/ct
# Mono.angle_offset: 16.0754 deg
# Mono.scan_mode: pseudo channel cut
# Mono.scan_type: step
# Mono.direction: forward in energy
# Sample.name: Dy2O3
# Sample.prep: PEG pellet
# Sample.x: 109.138 mm
# Sample.y: 153.150 mm
# Sample.SDD_position: 205.000 mm
# Scan.experimenters: Bruce Ravel
# Scan.edge_energy: 7790.1
# Scan.start_time: 2023-05-28T14:21:54
# Scan.end_time: 2023-05-28T14:30:24
# Scan.transient_id: 78756
# Scan.uid: 1ba70c9e-abdc-4bf8-bb65-0da13854fc00
# Scan.plot_hint: ln(It/Ir)  --  ln($6/$7)
# Column.1: energy eV
# Column.2: requested_energy eV
# Column.3: measurement_time seconds
# Column.4: xmu
# Column.5: I0 nA
# Column.6: It nA
# Column.7: Ir nA
# ///////////
# sample courtesy Martin Stennett, University of Sheffield
# -----------
# energy  requested_energy  measurement_time  xmu  I0  It  Ir
  7590.105  7590.100  0.500  2.156867  144.521  161.09  18.636
  7620.109  7620.100  0.500  2.133498  143.957  161.543  19.1303
  7650.108  7650.100  0.500  2.110599  144.035  162.714  19.7154
  7680.121  7680.100  0.500  2.088392  143.66  163.361  20.2381
  7710.113  7710.100  0.500  2.066649  143.386  164.094  20.7758
  7740.113  7740.100  0.500  2.047682  141.416  162.879  21.0169
  7762.098  7762.100  0.500  2.041690  142.585  164.949  21.4119
  7768.094  7768.100  0.500  2.044933  142.477  165.014  21.3509
  7774.092  7774.100  0.500  2.055597  142.37  165.085  21.1335
  7780.094  7780.100  0.500  2.087195  142.259  165.179  20.4879
  7780.978  7781.000  0.500  2.096411  142.236  165.162  20.2979
  7781.883  7781.900  0.500  2.108090  142.204  165.174  20.0637
  7782.782  7782.800  0.500  2.123113  142.18  165.176  19.7647
  7783.680  7783.700  0.500  2.143469  142.155  165.173  19.3661
  7784.582  7784.600  0.500  2.169911  142.128  165.165  18.8598
  7785.490  7785.500  0.500  2.201993  142.119  165.2  18.2683
  7786.391  7786.400  0.500  2.235614  142.1  165.209  17.6652
  7787.292  7787.300  0.500  2.272855  142.059  165.13  17.0113
  7788.185  7788.200  0.500  2.322890  142.028  165.141  16.1821
  7789.086  7789.100  0.500  2.394947  141.995  165.126  15.0558
  7789.998  7790.000  0.500  2.499743  141.984  165.124  13.5577
  7790.899  7790.900  0.500  2.658836  141.964  165.183  11.5677
  7791.793  7791.800  0.500  2.877871  141.937  165.187  9.292501
  7792.688  7792.700  0.500  3.129585  141.919  165.207  7.225485
  7793.600  7793.600  0.500  3.372431  141.881  165.193  5.667123
  7794.500  7794.500  0.500  3.539842  141.876  165.215  4.794182
  7795.395  7795.400  0.500  3.629435  141.848  165.192  4.382726
  7796.293  7796.300  0.500  3.668826  141.826  165.222  4.214217
  7797.204  7797.200  0.500  3.644191  141.8  165.23  4.319546
  7798.099  7798.100  0.500  3.550309  141.771  165.189  4.743518
  7799.000  7799.000  0.500  3.401975  141.761  165.221  5.503082
  7799.901  7799.900  0.500  3.238475  141.728  165.19  6.479346
  7800.803  7800.800  0.500  3.092213  141.705  165.173  7.499063
  7801.702  7801.700  0.500  2.973514  141.682  165.166  8.443861
  7802.596  7802.600  0.500  2.890920  141.65  165.223  9.174015
  7803.506  7803.500  0.500  2.833781  141.628  165.172  9.710478
  7804.400  7804.400  0.500  2.793457  141.603  165.215  10.1127
  7805.300  7805.300  0.500  2.763840  141.579  165.209  10.4163
  7806.192  7806.200  0.500  2.741501  141.553  165.23  10.6529
  7807.098  7807.100  0.500  2.724777  141.545  165.186  10.8297
  7807.993  7808.000  0.500  2.714708  141.535  165.243  10.9431
  7808.891  7808.900  0.500  2.709995  141.497  165.198  10.9918
  7809.795  7809.800  0.500  2.710497  141.468  165.246  10.9895
  7810.701  7810.700  0.500  2.714854  141.448  165.233  10.9409
  7811.589  7811.600  0.500  2.721271  141.423  165.214  10.8696
  7812.496  7812.500  0.500  2.726409  141.419  165.274  10.8178
  7813.375  7813.400  0.500  2.728519  141.804  165.702  10.823
  7814.287  7814.300  0.500  2.726825  141.792  165.72  10.8425
  7815.074  7815.100  0.500  2.722648  141.693  165.678  10.8851
  7818.095  7818.110  0.500  2.699052  141.577  165.613  11.1407
  7821.286  7821.300  0.500  2.708823  141.506  165.675  11.0364
  7824.652  7824.660  0.500  2.756564  141.454  165.699  10.5235
  7828.173  7828.180  0.500  2.819636  141.384  165.708  9.880811
  7831.877  7831.880  0.500  2.866397  140.356  164.638  9.368497
  7835.743  7835.750  0.500  2.847494  141.208  165.792  9.614198
  7839.794  7839.800  0.500  2.799395  140.219  164.724  10.0229
  7844.009  7844.010  0.500  2.765326  141.051  165.839  10.4405
  7848.395  7848.390  0.500  2.742312  140.941  165.87  10.6855
  7852.957  7852.950  0.500  2.727057  140.894  165.972  10.8565
  7857.688  7857.680  0.500  2.716396  140.745  165.938  10.9706
  7862.586  7862.580  0.500  2.714398  140.682  166.046  10.9997
  7867.654  7867.650  0.500  2.725749  140.603  166.035  10.8748
  7872.896  7872.890  0.500  2.743581  140.493  166.108  10.6873
  7878.306  7878.310  0.500  2.754171  140.38  166.135  10.5764
  7883.889  7883.890  0.500  2.752988  140.286  166.187  10.5923
  7889.656  7889.650  0.500  2.747893  140.171  166.287  10.6528
  7895.578  7895.580  0.500  2.742533  140.082  166.405  10.7177
  7901.680  7901.680  0.500  2.737471  139.825  166.289  10.7645
  7907.960  7907.950  0.500  2.734336  139.774  166.392  10.805
  7914.395  7914.390  0.500  2.721175  139.649  166.453  10.9522
  7921.002  7921.000  0.500  2.698469  139.505  166.46  11.2042
  7927.803  7927.790  0.500  2.684233  138.977  166.07  11.3382
  7934.758  7934.750  0.500  2.689181  139.126  166.456  11.3085
  7941.880  7941.870  0.500  2.693422  139.166  166.75  11.2805
  7949.177  7949.170  0.500  2.702816  138.886  166.661  11.1691
  7956.664  7956.650  0.500  2.708947  138.709  166.661  11.1008
  7964.300  7964.290  0.500  2.695021  138.504  166.656  11.2561
  7972.105  7972.100  0.500  2.678205  138.228  166.568  11.441
  7980.102  7980.090  0.500  2.671028  137.299  165.674  11.4615
  7988.260  7988.250  0.500  2.670067  137.561  166.252  11.5126
  7996.575  7996.570  0.500  2.669478  137.354  166.226  11.5175
  8005.086  8005.070  0.500  2.662078  137.167  166.23  11.6034
  8013.772  8013.750  0.500  2.647633  137.235  166.578  11.7969
  8022.599  8022.590  0.500  2.638583  137.086  166.703  11.913
  8031.620  8031.600  0.500  2.636640  136.875  166.682  11.9347
  8040.808  8040.790  0.500  2.635740  137.034  167.169  11.9803
  8050.168  8050.150  0.500  2.633984  136.8  167.161  12.0008
  8059.684  8059.670  0.500  2.627245  134.849  165.048  11.9292
  8069.393  8069.370  0.500  2.618356  135.179  165.726  12.0852
  8079.268  8079.250  0.500  2.607271  131.455  161.459  11.9053
  8089.306  8089.290  0.500  2.598715  135.694  166.938  12.415
  8099.513  8099.500  0.500  2.594790  135.634  167.138  12.4788
  8109.909  8109.890  0.500  2.588714  135.299  167.056  12.5487
  8120.472  8120.450  0.500  2.578885  134.973  166.966  12.6658
  8131.193  8131.180  0.500  2.570739  134.634  166.832  12.7592
  8142.096  8142.080  0.500  2.564657  134.302  166.726  12.8288
  8153.167  8153.150  0.500  2.556506  133.944  166.583  12.9227
  8164.400  8164.390  0.500  2.550408  133.591  166.461  12.9922
  8175.836  8175.810  0.500  2.544938  133.212  166.318  13.0523
  8187.406  8187.390  0.500  2.536841  132.843  166.156  13.1456
  8199.166  8199.150  0.500  2.527410  132.476  166.006  13.2582
  8211.098  8211.080  0.500  2.517610  132.075  165.857  13.3767
  8223.192  8223.180  0.500  2.507502  131.659  165.672  13.4975
  8235.458  8235.450  0.500  2.498464  131.245  165.477  13.6041
  8247.903  8247.890  0.500  2.493200  130.807  165.285  13.66
  8260.523  8260.510  0.500  2.486347  130.375  165.055  13.7348
  8273.301  8273.290  0.500  2.476366  129.907  164.791  13.8503
  8286.261  8286.250  0.500  2.466594  129.398  164.474  13.9595
  8299.392  8299.380  0.500  2.456771  128.892  164.16  14.0703
  8312.700  8312.680  0.500  2.446327  128.213  163.649  14.1738
  8326.159  8326.150  0.500  2.438983  127.817  163.487  14.2641
  8339.812  8339.800  0.500  2.433370  127.117  162.891  14.2922
  8353.628  8353.610  0.500  2.423354  126.133  161.998  14.3569
  8367.617  8367.600  0.500  2.410983  125.66  161.744  14.5128
  8381.781  8381.760  0.500  2.399229  125.125  161.389  14.6522
  8396.136  8396.090  0.500  2.389826  124.417  160.806  14.7372
  8410.618  8410.590  0.500  2.382790  123.782  160.355  14.7996
  8425.304  8425.260  0.500  2.374822  123.117  159.838  14.8699
  8440.153  8440.100  0.500  2.365146  122.41  159.27  14.9611
  8455.166  8455.120  0.500  2.352481  121.644  158.621  15.0901
  8470.324  8470.300  0.500  2.340607  120.853  157.921  15.203
  8485.710  8485.660  0.500  2.330395  120.01  157.183  15.2872
  8501.238  8501.190  0.500  2.321207  119.121  156.364  15.3479
  8516.937  8516.890  0.500  2.312659  118.157  155.449  15.3891
  8532.789  8532.760  0.500  2.301372  112.527  148.337  14.8517
  8548.793  8548.810  0.500  2.290063  116.191  153.544  15.5479
  8559.655  8559.600  0.500  2.284683  115.429  152.766  15.5526