Folder: webxdiviewer/xdidata/Data/Er (part 2)

File: Eu-L1-Eu2O3-m.xdi
# XDI/1.0 BlueSky/1.10.0 BMM/2023-1.0-py310-tiled
# Beamline.name: BMM (06BM) -- Beamline for Materials Measurement (NIST)
# Beamline.xray_source: NSLS-II three-pole wiggler
# Beamline.collimation: paraboloid mirror, 5 nm Rh on 30 nm Pt
# Beamline.focusing: not in use
# Beamline.harmonic_rejection: flat mirror, Pt stripe, pitch = 7.0 mrad relative to beam
# Beamline.software: Bluesky 1.10.0, Ophyd 1.7.0, DataBroker 2.0.0b13, Python 3.10.8, 2023-1.0-py310-tiled
# Detector.I0: 10 cm N2
# Detector.I1: 25 cm N2
# Detector.I2: 25 cm N2
# Element.symbol: Eu
# Element.edge: L1
# Element.reference: Eu
# Element.reference_material: Eu2O3
# Facility.name: NSLS-II
# Facility.energy: 3.0
# Facility.current: 399.5
# Facility.mode: top-off
# Facility.GUP: 123456
# Facility.SAF: 301027
# Facility.cycle: 2023-2
# Mono.name: Si(111)
# Mono.d_spacing: 3.13519
# Mono.encoder_resolution: 0.0000050 deg/ct
# Mono.angle_offset: 16.0754 deg
# Mono.scan_mode: pseudo channel cut
# Mono.scan_type: step
# Mono.direction: forward in energy
# Sample.name: monoclinic Eu2O3
# Sample.prep: Powder in PEG pellet
# Sample.x: 123.848 mm
# Sample.y: 114.690 mm
# Sample.SDD_position: 205.000 mm
# Scan.experimenters: Bruce Ravel
# Scan.edge_energy: 8052.0
# Scan.start_time: 2023-05-08T21:03:17
# Scan.end_time: 2023-05-08T21:09:12
# Scan.transient_id: 75610
# Scan.uid: 3807b9f8-2d96-4364-b2e3-2ecb9fb05b2f
# Scan.plot_hint: ln(I0/It)  --  ln($5/$6)
# Column.1: energy eV
# Column.2: requested_energy eV
# Column.3: measurement_time seconds
# Column.4: xmu
# Column.5: I0 nA
# Column.6: It nA
# Column.7: Ir nA
# ///////////
# sample courtesy Martin Stennett, University of Sheffield
# -----------
# energy  requested_energy  measurement_time  xmu  I0  It  Ir
  7852.003  7852.000  0.500  1.830179  136.795  21.9399  5.924474
  7872.048  7872.000  0.500  1.816241  136.467  22.1944  6.033392
  7892.053  7892.000  0.500  1.800770  136.091  22.4783  6.167341
  7912.038  7912.000  0.500  1.788313  135.716  22.6973  6.280381
  7932.025  7932.000  0.500  1.773032  135.246  22.9671  6.405940
  7952.019  7952.000  0.500  1.757647  134.8  23.2463  6.540932
  7971.977  7972.000  0.500  1.745412  133.325  23.2749  6.596148
  7991.978  7992.000  0.500  1.732459  132.885  23.5005  6.709230
  8011.990  8012.000  0.500  1.718605  132.373  23.7366  6.829869
  8023.984  8024.000  0.500  1.711111  132.153  23.8755  6.901854
  8027.974  8028.000  0.500  1.709081  132.06  23.907  6.919931
  8031.979  8032.000  0.500  1.707307  131.907  23.9219  6.933877
  8035.979  8036.000  0.500  1.705516  131.824  23.9495  6.950783
  8039.981  8040.000  0.500  1.703875  131.729  23.9716  6.964197
  8042.477  8042.500  0.500  1.703319  131.606  23.9626  6.964736
  8043.473  8043.500  0.500  1.703270  131.591  23.961  6.965137
  8044.475  8044.500  0.500  1.703186  131.58  23.9611  6.966004
  8045.477  8045.500  0.500  1.703487  132.054  24.0402  6.988594
  8046.485  8046.500  0.500  1.703859  132.019  24.0247  6.984420
  8047.488  8047.500  0.500  1.704215  131.997  24.0122  6.979915
  8048.486  8048.500  0.500  1.704956  131.958  23.9874  6.970526
  8049.483  8049.500  0.500  1.706091  131.913  23.9519  6.957641
  8050.495  8050.500  0.500  1.707897  131.867  23.9003  6.939117
  8051.494  8051.500  0.500  1.710272  131.855  23.8415  6.913878
  8052.492  8052.500  0.500  1.714019  131.792  23.741  6.875358
  8053.485  8053.500  0.500  1.719089  131.73  23.6098  6.822894
  8054.498  8054.500  0.500  1.726748  131.648  23.4152  6.745749
  8055.495  8055.500  0.500  1.735204  131.527  23.1966  6.660281
  8056.500  8056.500  0.500  1.743796  131.32  22.9621  6.570788
  8057.489  8057.500  0.500  1.751227  130.287  22.6128  6.452419
  8058.495  8058.500  0.500  1.757413  125.919  21.7199  6.181881
  8059.495  8059.500  0.500  1.763021  130.94  22.4596  6.372253
  8060.504  8060.500  0.500  1.768477  131.818  22.4872  6.358731
  8061.494  8061.500  0.500  1.775470  131.757  22.3201  6.287423
  8062.495  8062.500  0.500  1.784603  131.643  22.098  6.194009
  8063.499  8063.500  0.500  1.795974  131.635  21.8469  6.089199
  8064.503  8064.500  0.500  1.809198  131.582  21.5512  5.968518
  8065.505  8065.500  0.500  1.823256  131.525  21.2412  5.844343
  8066.488  8066.500  0.500  1.835880  131.413  20.9569  5.733737
  8067.499  8067.500  0.500  1.846006  131.294  20.7269  5.646917
  8068.501  8068.500  0.500  1.851829  131.073  20.5718  5.587988
  8069.504  8069.500  0.500  1.853221  128.815  20.1893  5.476129
  8070.502  8070.500  0.500  1.850918  127.02  19.9539  5.410654
  8071.494  8071.500  0.500  1.847652  131.295  20.6929  5.612484
  8072.501  8072.500  0.500  1.844234  131.377  20.7768  5.639786
  8073.507  8073.500  0.500  1.841445  131.296  20.8221  5.658645
  8074.498  8074.500  0.500  1.839908  131.269  20.8498  5.672075
  8075.499  8075.500  0.500  1.838960  131.198  20.8581  5.679726
  8076.496  8076.500  0.500  1.838281  131.096  20.8562  5.686372
  8077.995  8077.990  0.500  1.837553  130.657  20.8014  5.682244
  8080.017  8080.010  0.500  1.834480  128.746  20.5603  5.632459
  8082.132  8082.120  0.500  1.828923  131.093  21.0518  5.790155
  8084.305  8084.300  0.500  1.820645  131.024  21.2156  5.862493
  8086.577  8086.560  0.500  1.811328  130.928  21.3985  5.940862
  8088.889  8088.890  0.500  1.802898  130.656  21.5348  6.003330
  8091.312  8091.300  0.500  1.795430  125.207  20.7914  5.814530
  8093.784  8093.780  0.500  1.789755  130.988  21.8752  6.132305
  8096.347  8096.340  0.500  1.786205  130.842  21.9285  6.157390
  8098.988  8098.980  0.500  1.785774  130.725  21.9183  6.158286
  8101.703  8101.700  0.500  1.787312  130.66  21.8737  6.144899
  8104.500  8104.490  0.500  1.789400  130.562  21.8117  6.120756
  8107.365  8107.350  0.500  1.792194  130.455  21.733  6.092638
  8110.304  8110.290  0.500  1.794039  130.379  21.6804  6.071623
  8113.320  8113.310  0.500  1.794024  130.314  21.6699  6.063859
  8116.423  8116.410  0.500  1.792563  130.249  21.6907  6.065988
  8119.588  8119.580  0.500  1.791363  130.157  21.7014  6.070880
  8122.830  8122.830  0.500  1.789770  130.076  21.7225  6.082925
  8126.155  8126.150  0.500  1.787428  129.98  21.7573  6.104853
  8129.563  8129.550  0.500  1.784673  129.899  21.8039  6.134402
  8133.056  8133.030  0.500  1.780357  129.789  21.8796  6.173107
  8136.600  8136.580  0.500  1.776697  129.669  21.9395  6.207493
  8140.224  8140.210  0.500  1.774088  129.629  21.99  6.235821
  8143.916  8143.910  0.500  1.771621  129.501  22.0226  6.256415
  8147.697  8147.690  0.500  1.768236  129.368  22.0745  6.279520
  8151.562  8151.550  0.500  1.763875  129.258  22.1522  6.311300
  8155.493  8155.480  0.500  1.759029  129.198  22.2494  6.349480
  8159.502  8159.490  0.500  1.754889  129.149  22.3332  6.385530
  8163.589  8163.580  0.500  1.751640  129.054  22.3895  6.415766
  8167.749  8167.740  0.500  1.748557  128.961  22.4425  6.441446
  8171.965  8171.980  0.500  1.745836  128.881  22.4897  6.464710
  8176.277  8176.290  0.500  1.743979  128.78  22.5137  6.481085
  8180.671  8180.680  0.500  1.742675  128.667  22.5234  6.491740
  8185.153  8185.150  0.500  1.740911  128.614  22.5537  6.505905
  8189.706  8189.690  0.500  1.738126  128.486  22.5942  6.525077
  8194.328  8194.310  0.500  1.734669  128.402  22.6576  6.555176
[...]
  8218.559  8218.550  0.500  1.716522  127.884  22.9795  6.725505
  8223.632  8223.620  0.500  1.713739  127.735  23.0166  6.747562
  8228.772  8228.770  0.500  1.710647  127.673  23.0767  6.775943
  8234.009  8234.000  0.500  1.706854  127.53  23.1386  6.806296
  8239.322  8239.310  0.500  1.702595  127.376  23.2092  6.839653
  8244.695  8244.690  0.500  1.698017  127.246  23.2919  6.878985
  8250.156  8250.150  0.500  1.693514  127.096  23.3694  6.916463
  8255.684  8255.680  0.500  1.689380  126.978  23.4445  6.954391
  8261.301  8261.290  0.500  1.686038  126.824  23.4944  6.986222
  8266.979  8266.970  0.500  1.682687  126.723  23.5546  7.019925
  8272.755  8272.740  0.500  1.679775  126.501  23.5818  7.041577
  8278.587  8278.570  0.500  1.676632  124.919  23.3602  6.990063
  8284.504  8284.490  0.500  1.672605  126.17  23.6893  7.100718
  8290.489  8290.480  0.500  1.668424  126.051  23.7661  7.139685
  8296.559  8296.550  0.500  1.664118  125.858  23.8321  7.175976
  8302.706  8302.690  0.500  1.659702  126.063  23.9767  7.238382
  8308.925  8308.910  0.500  1.655452  126.055  24.0772  7.287354
  8315.207  8315.200  0.500  1.651127  125.906  24.1531  7.328334
  8321.587  8321.570  0.500  1.646996  125.684  24.2103  7.363478
  8328.041  8328.020  0.500  1.643163  125.497  24.267  7.398000
  8334.561  8334.550  0.500  1.639098  125.168  24.3019  7.426737
  8341.169  8341.150  0.500  1.634423  124.941  24.3717  7.464914
  8347.839  8347.820  0.500  1.629427  124.672  24.441  7.502709
  8354.588  8354.570  0.500  1.624839  124.231  24.4665  7.530010
  8361.421  8361.400  0.500  1.620635  124.089  24.5414  7.570947
  8368.328  8368.310  0.500  1.615999  123.969  24.6316  7.620547
  8375.308  8375.290  0.500  1.611278  123.813  24.7171  7.666527
  8382.377  8382.350  0.500  1.606921  123.576  24.7775  7.705587
  8389.492  8389.480  0.500  1.602735  123.32  24.8298  7.740078
  8396.732  8396.690  0.500  1.598424  123.108  24.8944  7.778162
  8403.993  8403.980  0.500  1.594050  122.879  24.957  7.817202
  8411.368  8411.340  0.500  1.589321  122.675  25.0336  7.861453
  8418.801  8418.780  0.500  1.584324  122.474  25.1177  7.909741
  8426.318  8426.290  0.500  1.579449  122.262  25.1968  7.958377
  8433.898  8433.880  0.500  1.574194  122.061  25.288  8.008843
  8441.575  8441.550  0.500  1.569221  121.814  25.3625  8.054855
  8449.308  8449.290  0.500  1.564355  121.572  25.4355  8.102992
  8457.148  8457.110  0.500  1.559674  121.301  25.4979  8.143505
  8465.028  8465.010  0.500  1.554810  121.063  25.572  8.189682
  8473.006  8472.980  0.500  1.549720  120.793  25.6452  8.235759
  8481.062  8481.030  0.500  1.544763  120.551  25.7211  8.283637
  8489.198  8489.150  0.500  1.539699  120.301  25.798  8.330453
  8497.372  8497.350  0.500  1.534369  120.029  25.8773  8.379038
  8505.658  8505.630  0.500  1.529259  119.694  25.9373  8.422647
  8514.023  8513.980  0.500  1.524063  119.419  26.0124  8.472924
  8522.434  8522.410  0.500  1.518789  118.967  26.0511  8.509895
  8530.924  8530.910  0.500  1.513697  103.07  22.6852  7.431841
  8539.525  8539.490  0.500  1.508545  118.827  26.2883  8.639332
  8548.150  8548.150  0.500  1.503307  118.502  26.354  8.684269
  8556.925  8556.890  0.500  1.498281  118.071  26.3904  8.722302
  8565.678  8565.700  0.500  1.492987  117.904  26.4932  8.781769
  8574.598  8574.580  0.500  1.487705  117.592  26.563  8.831216
  8583.556  8583.540  0.500  1.482035  117.275  26.6419  8.885057
  8592.596  8592.580  0.500  1.476846  105.407  24.0704  8.052130
  8597.143  8597.130  0.500  1.473555  115.983  26.5729  8.902025