Folder: webxdiviewer/xdidata/Data/Er

Note: xdidata/README.md
# bmm-standards
A pretty webpage for BMM's collection of common XAFS materials

[BMM's common materials collection](./BMM-standards.html)

Plotting of the data will happen soon.

Periodic table adapted from [some guy named Daniel](https://codepen.io/gooseofmusic/pen/PjKdNQ)

[This](https://www.coderstool.com/scss-to-css) is a helpful tool for
dealing with Sassy CSS.

File: Er-L3-Er2O3.xdi
# XDI/1.0 BlueSky/1.10.0 BMM/2023-1.0-py310-tiled
# Beamline.name: BMM (06BM) -- Beamline for Materials Measurement (NIST)
# Beamline.xray_source: NSLS-II three-pole wiggler
# Beamline.collimation: paraboloid mirror, 5 nm Rh on 30 nm Pt
# Beamline.focusing: not in use
# Beamline.harmonic_rejection: flat mirror, Pt stripe, pitch = 7.0 mrad relative to beam
# Beamline.software: Bluesky 1.10.0, Ophyd 1.7.0, DataBroker 2.0.0b13, Python 3.10.8, 2023-1.0-py310-tiled
# Detector.I0: 10 cm N2
# Detector.I1: 25 cm N2
# Detector.I2: 25 cm N2
# Element.symbol: Er
# Element.edge: L3
# Element.reference: Er
# Element.reference_material: Er2O3
# Facility.name: NSLS-II
# Facility.energy: 3.0
# Facility.current: 399.3
# Facility.mode: top-off
# Facility.GUP: 123456
# Facility.SAF: 301027
# Facility.cycle: 2023-2
# Mono.name: Si(111)
# Mono.d_spacing: 3.13519
# Mono.encoder_resolution: 0.0000050 deg/ct
# Mono.angle_offset: 16.0754 deg
# Mono.scan_mode: pseudo channel cut
# Mono.scan_type: step
# Mono.direction: forward in energy
# Sample.name: Er2O3
# Sample.prep: Powder in PEG pellet
# Sample.x: 123.848 mm
# Sample.y: 114.690 mm
# Sample.SDD_position: 205.000 mm
# Scan.experimenters: Bruce Ravel
# Scan.edge_energy: 8357.9
# Scan.start_time: 2023-05-08T19:06:25
# Scan.end_time: 2023-05-08T19:12:21
# Scan.transient_id: 75521
# Scan.uid: 779a3337-3817-4134-95b5-ebf0a9af7930
# Scan.plot_hint: ln(I0/It)  --  ln($5/$6)
# Column.1: energy eV
# Column.2: requested_energy eV
# Column.3: measurement_time seconds
# Column.4: xmu
# Column.5: I0 nA
# Column.6: It nA
# Column.7: Ir nA
# ///////////
# sample courtesy Martin Stennett, University of Sheffield
# -----------
# energy  requested_energy  measurement_time  xmu  I0  It  Ir
  8157.917  8157.900  0.500  1.404250  134.929  33.1319  13.2159
  8177.964  8177.900  0.500  1.390026  134.626  33.5312  13.4633
  8197.945  8197.900  0.500  1.375505  134.312  33.9423  13.7169
  8217.926  8217.900  0.500  1.361514  133.965  34.3316  13.9644
  8237.920  8237.900  0.500  1.347389  133.654  34.7392  14.2167
  8258.091  8257.900  0.500  1.333778  133.262  35.1118  14.4593
  8277.885  8277.900  0.500  1.320806  132.165  35.2776  14.6153
  8297.887  8297.900  0.500  1.308703  132.563  35.8146  14.9224
  8317.884  8317.900  0.500  1.300214  132.203  36.0217  15.0743
  8329.882  8329.900  0.500  1.301005  131.961  35.9274  15.045
  8333.879  8333.900  0.500  1.303862  131.74  35.7649  14.9675
  8337.880  8337.900  0.500  1.309874  131.607  35.5146  14.8359
  8341.882  8341.900  0.500  1.321355  131.46  35.0699  14.5978
  8345.885  8345.900  0.500  1.345684  131.327  34.1925  14.1214
  8348.373  8348.400  0.500  1.375868  131.204  33.1448  13.5509
  8349.369  8349.400  0.500  1.394930  131.128  32.5001  13.2027
  8350.373  8350.400  0.500  1.422383  131.038  31.5984  12.7178
  8351.375  8351.400  0.500  1.458083  130.933  30.4657  12.118
  8352.380  8352.400  0.500  1.494503  130.856  29.3587  11.5322
  8353.388  8353.400  0.500  1.530949  130.808  28.2977  10.9815
  8354.385  8354.400  0.500  1.581206  130.792  26.9074  10.2669
  8355.378  8355.400  0.500  1.661331  130.789  24.8351  9.226147
  8356.387  8356.400  0.500  1.792674  130.775  21.7759  7.742713
  8357.394  8357.400  0.500  2.003079  130.874  17.6575  5.856655
  8358.388  8358.400  0.500  2.295007  131.204  13.2202  3.980392
  8359.395  8359.400  0.500  2.651053  131.19  9.258993  2.469014
  8360.390  8360.400  0.500  2.944335  131.168  6.904282  1.659569
  8361.388  8361.400  0.500  3.103435  131.181  5.889352  1.337996
  8362.401  8362.400  0.500  3.183450  131.164  5.435759  1.199927
  8363.400  8363.400  0.500  3.189959  131.139  5.399444  1.189008
  8364.396  8364.400  0.500  3.083234  131.125  6.006971  1.373339
  8365.392  8365.400  0.500  2.876041  131.105  7.388729  1.816257
  8366.395  8366.400  0.500  2.641483  131.088  9.340724  2.487729
  8367.400  8367.400  0.500  2.445154  131.072  11.3656  3.236066
  8368.403  8368.400  0.500  2.302014  131.058  13.1133  3.919108
  8369.392  8369.400  0.500  2.208270  131.046  14.4007  4.442501
  8370.401  8370.400  0.500  2.146377  131.028  15.3181  4.826253
  8371.402  8371.400  0.500  2.100683  131.002  16.031  5.130198
  8372.403  8372.400  0.500  2.066976  130.984  16.5784  5.366748
  8373.404  8373.400  0.500  2.043734  130.95  16.9637  5.535659
  8374.402  8374.400  0.500  2.028782  130.929  17.2165  5.647632
  8375.392  8375.400  0.500  2.021927  130.9  17.3312  5.699371
  8376.403  8376.400  0.500  2.023744  130.877  17.2966  5.685766
  8377.399  8377.400  0.500  2.031344  130.863  17.1639  5.627437
  8378.401  8378.400  0.500  2.040836  130.844  16.9993  5.555383
  8379.398  8379.400  0.500  2.046803  130.819  16.8949  5.510010
  8380.398  8380.400  0.500  2.047300  130.798  16.8837  5.507211
  8381.407  8381.400  0.500  2.042214  130.769  16.9661  5.542349
  8382.404  8382.400  0.500  2.033331  130.745  17.1144  5.609060
  8383.890  8383.890  0.500  2.017333  130.702  17.3846  5.729484
  8385.926  8385.910  0.500  2.007827  130.632  17.5413  5.799260
  8388.035  8388.020  0.500  2.025573  130.549  17.2218  5.660398
  8390.205  8390.200  0.500  2.060940  130.493  16.6162  5.397581
  8392.464  8392.460  0.500  2.101660  130.446  15.9475  5.108902
  8394.806  8394.790  0.500  2.151912  130.405  15.1611  4.775508
  8397.207  8397.200  0.500  2.199979  130.343  14.4427  4.476041
  8399.691  8399.680  0.500  2.216399  130.284  14.201  4.377634
  8402.243  8402.240  0.500  2.195271  130.229  14.4982  4.501154
  8404.890  8404.880  0.500  2.156566  130.177  15.0643  4.741511
  8407.612  8407.600  0.500  2.120441  130.116  15.6112  4.975173
  8410.403  8410.390  0.500  2.096244  130.049  15.9853  5.136106
  8413.256  8413.250  0.500  2.077448  129.998  16.2822  5.267712
  8416.199  8416.190  0.500  2.060330  129.928  16.5544  5.387460
  8419.224  8419.210  0.500  2.048502  129.867  16.7435  5.472722
  8422.321  8422.310  0.500  2.039476  129.798  16.8863  5.536429
  8425.490  8425.480  0.500  2.033775  129.739  16.9752  5.579242
  8428.744  8428.730  0.500  2.032515  129.662  16.9864  5.585926
  8432.058  8432.050  0.500  2.038051  129.59  16.8833  5.543679
  8435.461  8435.450  0.500  2.050084  129.499  16.6697  5.452444
  8438.949  8438.930  0.500  2.065003  129.441  16.4155  5.342957
  8442.483  8442.480  0.500  2.077482  129.368  16.2027  5.252918
  8446.121  8446.110  0.500  2.083732  129.278  16.0905  5.206615
  8449.811  8449.810  0.500  2.083735  129.185  16.079  5.203312
  8453.599  8453.590  0.500  2.080223  129.106  16.1257  5.226594
  8457.458  8457.450  0.500  2.077995  128.997  16.148  5.238959
  8461.395  8461.380  0.500  2.075777  128.895  16.171  5.252018
  8465.400  8465.390  0.500  2.071179  128.817  16.2357  5.283533
  8469.489  8469.480  0.500  2.067007  128.725  16.2919  5.310709
  8473.644  8473.640  0.500  2.064424  128.624  16.3213  5.325713
  8477.883  8477.880  0.500  2.060583  128.52  16.3709  5.349917
  8482.195  8482.190  0.500  2.050357  128.429  16.5274  5.422021
  8486.591  8486.580  0.500  2.034319  128.314  16.7796  5.537519
  8491.064  8491.050  0.500  2.016974  128.203  17.0583  5.662839
  8495.606  8495.590  0.500  2.006754  128.098  17.2195  5.738479
  8500.224  8500.210  0.500  2.009768  127.996  17.1539  5.712595
[...]
  8524.467  8524.450  0.500  2.039703  127.297  16.5572  5.467495
  8529.546  8529.520  0.500  2.035619  122.344  15.9781  5.284177
  8534.687  8534.670  0.500  2.021133  126.893  16.8139  5.591645
  8539.922  8539.900  0.500  2.006552  127.034  17.0799  5.709653
  8545.227  8545.210  0.500  1.998747  126.922  17.1985  5.766906
  8550.611  8550.590  0.500  1.996592  126.8  17.2191  5.779503
  8556.073  8556.050  0.500  1.997166  126.673  17.192  5.772343
  8561.603  8561.580  0.500  1.996970  126.529  17.1757  5.768827
  8567.213  8567.190  0.500  1.996958  126.388  17.1569  5.765682
  8572.862  8572.870  0.500  1.993894  126.212  17.1855  5.782606
  8578.654  8578.640  0.500  1.984221  126.024  17.3268  5.851201
  8584.486  8584.470  0.500  1.973848  125.785  17.4743  5.924264
  8590.415  8590.390  0.500  1.966486  124.695  17.4508  5.933351
  8596.400  8596.380  0.500  1.963229  125.076  17.5612  5.979467
  8602.473  8602.450  0.500  1.963043  125.179  17.579  5.987921
  8608.609  8608.590  0.500  1.963603  124.691  17.5007  5.962558
  8614.821  8614.810  0.500  1.962889  122.16  17.1577  5.849020
  8621.119  8621.100  0.500  1.962110  126.234  17.7436  6.053313
  8627.487  8627.470  0.500  1.958393  125.68  17.7316  6.060550
  8633.938  8633.920  0.500  1.953245  125.247  17.7616  6.082840
  8640.467  8640.450  0.500  1.947278  124.19  17.7172  6.081796
  8647.064  8647.050  0.500  1.939541  124.53  17.9037  6.165390
  8653.738  8653.720  0.500  1.930525  124.826  18.1087  6.257448
  8660.494  8660.470  0.500  1.925204  125.024  18.2343  6.314894
  8667.316  8667.300  0.500  1.922095  124.85  18.2656  6.336622
  8674.220  8674.210  0.500  1.919939  124.667  18.2782  6.347838
  8681.213  8681.190  0.500  1.915983  124.47  18.3216  6.374895
  8688.273  8688.250  0.500  1.909754  124.273  18.4069  6.420436
  8695.393  8695.380  0.500  1.902972  124.04  18.4974  6.469533
  8702.610  8702.590  0.500  1.897864  123.618  18.5289  6.495374
  8709.898  8709.880  0.500  1.893716  122.614  18.4548  6.480089
  8717.254  8717.240  0.500  1.889713  123.592  18.6766  6.571042
  8724.694  8724.680  0.500  1.883665  123.41  18.7622  6.616174
  8732.210  8732.190  0.500  1.878624  123.219  18.8278  6.655559
  8739.792  8739.780  0.500  1.874773  123.022  18.8703  6.681275
  8747.467  8747.450  0.500  1.871624  122.824  18.8993  6.702852
  8755.211  8755.190  0.500  1.867244  122.615  18.9501  6.733689
  8763.026  8763.010  0.500  1.861316  122.41  19.0309  6.778446
  8770.931  8770.910  0.500  1.855120  122.21  19.1178  6.827505
  8778.897  8778.880  0.500  1.848402  122.016  19.2161  6.881043
  8786.940  8786.930  0.500  1.841480  121.792  19.3141  6.935178
  8795.069  8795.050  0.500  1.834204  121.565  19.4189  6.993558
  8803.270  8803.250  0.500  1.826615  121.352  19.5326  7.056772
  8811.537  8811.530  0.500  1.821288  121.128  19.6005  7.097560
  8819.890  8819.880  0.500  1.818209  120.923  19.6278  7.118976
  8828.317  8828.310  0.500  1.815250  120.703  19.65  7.137104
  8836.820  8836.810  0.500  1.810478  120.499  19.7108  7.173899
  8845.408  8845.390  0.500  1.803936  120.27  19.8024  7.227813
  8854.066  8854.050  0.500  1.797011  120.039  19.9018  7.285099
  8862.803  8862.790  0.500  1.789872  119.8  20.0044  7.342269
  8871.622  8871.600  0.500  1.783136  119.58  20.1026  7.399987
  8880.503  8880.480  0.500  1.776088  119.335  20.2034  7.457775
  8889.453  8889.440  0.500  1.768847  119.094  20.309  7.520438
  8898.500  8898.480  0.500  1.763827  118.841  20.3679  7.557361
  8903.052  8903.030  0.500  1.761920  118.707  20.3837  7.570991

File: Er-L3-ErbiumOxide.xdi
# XDI/1.0 BlueSky/1.10.0 BMM/2023-1.0-py310-tiled
# Beamline.name: BMM (06BM) -- Beamline for Materials Measurement (NIST)
# Beamline.xray_source: NSLS-II three-pole wiggler
# Beamline.collimation: paraboloid mirror, 5 nm Rh on 30 nm Pt
# Beamline.focusing: not in use
# Beamline.harmonic_rejection: flat mirror, Pt stripe, pitch = 7.0 mrad relative to beam
# Beamline.software: Bluesky 1.10.0, Ophyd 1.7.0, DataBroker 2.0.0b13, Python 3.10.8, 2023-1.0-py310-tiled
# Detector.I0: 10 cm N2
# Detector.I1: 25 cm N2
# Detector.I2: 25 cm N2
# Element.symbol: Er
# Element.edge: L3
# Element.reference: Er
# Element.reference_material: Er2O3
# Facility.name: NSLS-II
# Facility.energy: 3.0
# Facility.current: 399.7
# Facility.mode: top-off
# Facility.GUP: 301027
# Facility.SAF: 310583
# Facility.cycle: 2023-2
# Mono.name: Si(111)
# Mono.d_spacing: 3.13519
# Mono.encoder_resolution: 0.0000050 deg/ct
# Mono.angle_offset: 16.0754 deg
# Mono.scan_mode: pseudo channel cut
# Mono.scan_type: step
# Mono.direction: forward in energy
# Sample.name: Er2O3
# Sample.prep: PEG pellet
# Sample.x: 109.138 mm
# Sample.y: 153.150 mm
# Sample.SDD_position: 205.000 mm
# Scan.experimenters: Bruce Ravel
# Scan.edge_energy: 8357.9
# Scan.start_time: 2023-05-28T15:06:19
# Scan.end_time: 2023-05-28T15:14:14
# Scan.transient_id: 78784
# Scan.uid: 55ed502f-0ccd-4cb3-8f53-ce5b6a5c8679
# Scan.plot_hint: ln(It/Ir)  --  ln($6/$7)
# Column.1: energy eV
# Column.2: requested_energy eV
# Column.3: measurement_time seconds
# Column.4: xmu
# Column.5: I0 nA
# Column.6: It nA
# Column.7: Ir nA
# ///////////
# sample courtesy Martin Stennett, University of Sheffield
# -----------
# energy  requested_energy  measurement_time  xmu  I0  It  Ir
  8157.914  8157.900  0.500  1.121404  134.736  167.766  54.662
  8187.923  8187.900  0.500  1.109507  134.296  168.091  55.4231
  8217.940  8217.900  0.500  1.097682  133.89  168.373  56.1764
  8247.920  8247.900  0.500  1.086233  133.51  168.677  56.9261
  8277.915  8277.900  0.500  1.074952  132.89  168.695  57.5781
  8307.913  8307.900  0.500  1.064974  132.613  169.162  58.3165
  8329.896  8329.900  0.500  1.060649  132.27  169.282  58.6106
  8335.886  8335.900  0.500  1.061617  131.99  169.109  58.4942
  8341.885  8341.900  0.500  1.065553  131.821  169.052  58.2448
  8347.889  8347.900  0.500  1.079426  131.638  168.954  57.409
  8348.774  8348.800  0.500  1.083679  131.551  168.833  57.1243
  8349.683  8349.700  0.500  1.089489  131.887  169.291  56.9475
  8350.577  8350.600  0.500  1.097247  131.844  169.288  56.5063
  8351.483  8351.500  0.500  1.107416  131.761  169.187  55.9014
  8352.386  8352.400  0.500  1.118984  131.693  169.144  55.2444
  8353.283  8353.300  0.500  1.129902  131.628  169.074  54.622
  8354.178  8354.200  0.500  1.141995  131.602  169.061  53.9612
  8355.082  8355.100  0.500  1.159504  131.574  169.059  53.024
  8355.998  8356.000  0.500  1.187332  131.6  169.125  51.589
  8356.902  8356.900  0.500  1.230991  131.563  169.105  49.3791
  8357.801  8357.800  0.500  1.294755  131.545  169.072  46.3199
  8358.691  8358.700  0.500  1.383140  131.535  169.067  42.4004
  8359.590  8359.600  0.500  1.495002  131.523  169.071  37.9139
  8360.501  8360.500  0.500  1.600060  131.52  169.119  34.1424
  8361.394  8361.400  0.500  1.666517  131.506  169.104  31.9445
  8362.296  8362.300  0.500  1.702649  131.481  169.134  30.8162
  8363.190  8363.200  0.500  1.720911  131.489  169.162  30.2636
  8364.102  8364.100  0.500  1.714723  131.467  169.161  30.4512
  8365.008  8365.000  0.500  1.674187  131.444  169.145  31.708
  8365.894  8365.900  0.500  1.607413  131.445  169.16  33.9006
  8366.791  8366.800  0.500  1.533240  131.404  169.116  36.5012
  8367.704  8367.700  0.500  1.467683  131.405  169.142  38.9803
  8368.596  8368.600  0.500  1.417737  131.41  169.16  40.981
  8369.506  8369.500  0.500  1.383123  131.362  169.13  42.4167
  8370.395  8370.400  0.500  1.360295  131.366  169.19  43.4118
  8371.306  8371.300  0.500  1.342812  131.359  169.162  44.17
  8372.204  8372.200  0.500  1.329669  131.333  169.152  44.7517
  8373.103  8373.100  0.500  1.319986  131.311  169.171  45.1921
  8373.999  8374.000  0.500  1.312934  131.273  169.163  45.5099
  8374.899  8374.900  0.500  1.308318  131.276  169.189  45.7273
  8375.804  8375.800  0.500  1.305877  131.257  169.19  45.8394
  8376.698  8376.700  0.500  1.305917  131.233  169.192  45.8382
  8377.604  8377.600  0.500  1.307908  131.216  169.163  45.7393
  8378.495  8378.500  0.500  1.310741  131.219  169.206  45.6213
  8379.404  8379.400  0.500  1.313077  131.187  169.164  45.5036
  8380.292  8380.300  0.500  1.314066  131.166  169.196  45.4673
  8381.205  8381.200  0.500  1.313520  131.136  169.177  45.4869
  8382.097  8382.100  0.500  1.311496  131.139  169.186  45.5816
  8382.890  8382.900  0.500  1.308794  131.111  169.179  45.7031
  8385.986  8385.910  0.500  1.299591  131.027  169.151  46.1179
  8389.109  8389.100  0.500  1.308262  130.916  169.102  45.7065
  8392.470  8392.460  0.500  1.328243  130.825  169.066  44.7926
  8395.991  8395.980  0.500  1.354163  130.753  169.05  43.6424
  8399.682  8399.680  0.500  1.370712  130.703  169.074  42.9324
  8403.551  8403.550  0.500  1.358907  130.62  169.07  43.441
  8407.609  8407.600  0.500  1.338066  130.551  169.058  44.3527
  8411.820  8411.810  0.500  1.324919  130.508  169.129  44.9586
  8416.187  8416.190  0.500  1.314826  130.415  169.13  45.415
  8420.757  8420.750  0.500  1.308063  130.333  169.141  45.7261
  8425.490  8425.480  0.500  1.303612  130.242  169.14  45.9298
  8430.393  8430.380  0.500  1.302736  130.146  169.121  45.9649
  8435.458  8435.450  0.500  1.307078  130.059  169.121  45.7657
  8440.697  8440.690  0.500  1.314042  130.413  169.751  45.6175
  8446.108  8446.110  0.500  1.318049  130.342  169.75  45.4347
  8451.704  8451.690  0.500  1.317038  130.222  169.743  45.479
  8457.455  8457.450  0.500  1.314682  130.152  169.794  45.5997
  8463.399  8463.380  0.500  1.312547  130.04  169.769  45.6906
  8469.480  8469.480  0.500  1.309450  129.916  169.763  45.8306
  8475.759  8475.750  0.500  1.307273  129.779  169.732  45.9222
  8482.210  8482.190  0.500  1.302359  129.705  169.828  46.1744
  8488.814  8488.800  0.500  1.293065  129.546  169.777  46.5917
  8495.603  8495.590  0.500  1.285135  129.417  169.782  46.9639
  8502.560  8502.550  0.500  1.286066  129.29  169.763  46.9151
  8509.682  8509.670  0.500  1.287584  129.145  169.74  46.8376
  8516.974  8516.970  0.500  1.289245  129.014  169.74  46.7598
  8524.467  8524.450  0.500  1.292688  128.809  169.662  46.5777
  8532.108  8532.090  0.500  1.288845  117.185  154.48  42.573
  8539.913  8539.900  0.500  1.279700  128.436  169.509  47.1439
  8547.909  8547.890  0.500  1.275022  128.339  169.568  47.3816
  8556.064  8556.050  0.500  1.273985  128.202  169.592  47.4374
  8564.393  8564.370  0.500  1.272952  128.033  169.566  47.4792
  8572.887  8572.870  0.500  1.270956  127.875  169.567  47.5743
  8581.553  8581.550  0.500  1.264863  127.579  169.34  47.801
  8590.396  8590.390  0.500  1.259434  126.548  168.21  47.7405
  8599.413  8599.400  0.500  1.256812  127.166  169.234  48.1571
  8608.606  8608.590  0.500  1.255933  126.61  168.687  48.0436
  8617.953  8617.950  0.500  1.254582  99.2813  132.45  37.7742
  8627.481  8627.470  0.500  1.252079  127.633  170.49  48.7449
  8637.174  8637.170  0.500  1.248159  126.928  169.761  48.7271
  8647.067  8647.050  0.500  1.243111  126.577  169.527  48.9059
  8657.102  8657.090  0.500  1.237649  126.699  169.919  49.2875
  8667.316  8667.300  0.500  1.234511  126.448  169.787  49.4042
  8677.710  8677.690  0.500  1.231990  126.214  169.716  49.5081
  8688.266  8688.250  0.500  1.227930  125.986  169.661  49.6934
  8698.992  8698.980  0.500  1.223338  125.69  169.49  49.8718
  8709.891  8709.880  0.500  1.219822  122.356  165.226  48.7885
  8720.969  8720.950  0.500  1.216222  125.246  169.327  50.1798
  8732.207  8732.190  0.500  1.211944  125.035  169.329  50.3954
  8743.620  8743.610  0.500  1.208856  124.794  169.237  50.5237
  8755.204  8755.190  0.500  1.205395  124.528  169.107  50.66
  8766.973  8766.950  0.500  1.201065  124.269  169.002  50.8481
  8778.900  8778.880  0.500  1.196236  124.003  168.943  51.0765
  8791.003  8790.980  0.500  1.191345  123.698  168.739  51.2649
  8803.267  8803.250  0.500  1.186050  123.425  168.634  51.505
  8815.714  8815.690  0.500  1.182090  123.141  168.519  51.6743
  8828.334  8828.310  0.500  1.179232  122.848  168.384  51.7807
  8841.118  8841.090  0.500  1.175204  122.576  168.25  51.9481
  8854.076  8854.050  0.500  1.170165  122.285  168.122  52.171
  8867.202  8867.180  0.500  1.165188  121.969  167.935  52.373
  8880.510  8880.480  0.500  1.160127  121.659  167.779  52.5896
  8893.975  8893.950  0.500  1.155226  121.332  167.586  52.7872
  8907.621  8907.600  0.500  1.151768  120.956  167.349  52.8953
  8921.434  8921.410  0.500  1.148426  120.678  167.239  53.0375
  8935.415  8935.400  0.500  1.142764  120.426  167.149  53.31
  8949.586  8949.560  0.500  1.136663  120.081  166.958  53.5748
  8963.906  8963.890  0.500  1.131237  119.728  166.735  53.7943
  8978.413  8978.390  0.500  1.126730  119.745  167.03  54.1331
  8993.079  8993.060  0.500  1.123049  119.161  166.497  54.1591
  9007.923  9007.900  0.500  1.118850  118.957  166.5  54.388
  9022.941  9022.920  0.500  1.113740  118.681  166.381  54.6277
  9038.115  9038.100  0.500  1.107574  118.29  166.108  54.8755
  9053.473  9053.460  0.500  1.102096  117.884  165.821  55.0815
  9069.001  9068.990  0.500  1.097078  117.483  165.539  55.2643
  9084.701  9084.690  0.500  1.092578  117.052  165.214  55.4046
  9100.575  9100.560  0.500  1.088279  116.723  165.026  55.5801
  9116.631  9116.610  0.500  1.082492  116.308  164.715  55.7973
  9132.831  9132.820  0.500  1.076712  115.878  164.399  56.013
  9149.235  9149.210  0.500  1.070960  115.553  164.23  56.2783
  9165.771  9165.770  0.500  1.065753  115.037  163.74  56.4033
  9182.522  9182.500  0.500  1.060919  111.001  158.31  54.7971
  9199.416  9199.400  0.500  1.055811  114.267  163.27  56.8033
  9210.785  9210.760  0.500  1.052160  113.945  162.985  56.9115