Folder: webxdiviewer/xdidata/Data/Eu (part 2)

File: Eu-L3-Eu2O3-c.xdi
# XDI/1.0 BlueSky/1.10.0 BMM/2023-1.0-py310-tiled
# Beamline.name: BMM (06BM) -- Beamline for Materials Measurement (NIST)
# Beamline.xray_source: NSLS-II three-pole wiggler
# Beamline.collimation: paraboloid mirror, 5 nm Rh on 30 nm Pt
# Beamline.focusing: not in use
# Beamline.harmonic_rejection: flat mirror, Si stripe, pitch = 7.0 mrad relative to beam
# Beamline.software: Bluesky 1.10.0, Ophyd 1.7.0, DataBroker 2.0.0b13, Python 3.10.8, 2023-1.0-py310-tiled
# Detector.I0: 10 cm N2
# Detector.I1: 25 cm N2
# Detector.I2: 25 cm N2
# Element.symbol: Eu
# Element.edge: L3
# Element.reference: Eu
# Element.reference_material: Eu2O3
# Facility.name: NSLS-II
# Facility.energy: 3.0
# Facility.current: 400.6
# Facility.mode: top-off
# Facility.GUP: 123456
# Facility.SAF: 301027
# Facility.cycle: 2023-2
# Mono.name: Si(111)
# Mono.d_spacing: 3.13519
# Mono.encoder_resolution: 0.0000050 deg/ct
# Mono.angle_offset: 16.0754 deg
# Mono.scan_mode: pseudo channel cut
# Mono.scan_type: step
# Mono.direction: forward in energy
# Sample.name: cubic Eu2O3
# Sample.prep: Powder in PEG pellet
# Sample.x: 123.848 mm
# Sample.y: 114.690 mm
# Sample.SDD_position: 205.000 mm
# Scan.experimenters: Bruce Ravel
# Scan.edge_energy: 6976.9
# Scan.start_time: 2023-05-08T17:47:38
# Scan.end_time: 2023-05-08T17:53:56
# Scan.transient_id: 75461
# Scan.uid: 5d66c1c3-85af-421d-b804-066f6f0d0a01
# Scan.plot_hint: ln(I0/It)  --  ln($5/$6)
# Column.1: energy eV
# Column.2: requested_energy eV
# Column.3: measurement_time seconds
# Column.4: xmu
# Column.5: I0 nA
# Column.6: It nA
# Column.7: Ir nA
# ///////////
# sample courtesy Martin Stennett, University of Sheffield
# -----------
# energy  requested_energy  measurement_time  xmu  I0  It  Ir
  6776.906  6776.900  0.500  1.808529  151.799  24.8791  6.085219
  6796.911  6796.900  0.500  1.787292  151.044  25.2867  6.262593
  6816.891  6816.900  0.500  1.766221  151.924  25.9756  6.512820
  6836.900  6836.900  0.500  1.745575  152.099  26.548  6.737985
  6856.916  6856.900  0.500  1.724884  152.005  27.0863  6.958370
  6876.914  6876.900  0.500  1.705127  152.37  27.6932  7.199274
  6896.909  6896.900  0.500  1.684972  152.575  28.295  7.442545
  6916.906  6916.900  0.500  1.666269  152.515  28.8178  7.665808
  6936.879  6936.900  0.500  1.650535  152.51  29.2739  7.871076
  6948.882  6948.900  0.500  1.646301  152.49  29.3943  7.940793
  6952.881  6952.900  0.500  1.647345  152.5  29.3654  7.940278
  6956.886  6956.900  0.500  1.650947  152.485  29.2569  7.912328
  6960.890  6960.900  0.500  1.658385  152.511  29.0451  7.846447
  6964.893  6964.900  0.500  1.675697  152.51  28.5465  7.681363
  6967.386  6967.400  0.500  1.698640  152.523  27.9014  7.463238
  6968.381  6968.400  0.500  1.712609  152.5  27.5102  7.328469
  6969.384  6969.400  0.500  1.732004  152.497  26.9812  7.148723
  6970.387  6970.400  0.500  1.752902  152.517  26.4268  6.959751
  6971.388  6971.400  0.500  1.775264  152.506  25.8404  6.763028
  6972.384  6972.400  0.500  1.808077  152.474  25.001  6.481530
  6973.386  6973.400  0.500  1.859112  152.469  23.7564  6.068679
  6974.391  6974.400  0.500  1.930724  152.468  22.1145  5.530964
  6975.393  6975.400  0.500  2.021438  152.466  20.1964  4.919742
  6976.388  6976.400  0.500  2.150134  152.456  17.7564  4.163618
  6977.392  6977.400  0.500  2.345236  152.435  14.607  3.232569
  6978.399  6978.400  0.500  2.650208  152.415  10.7661  2.173280
  6979.397  6979.400  0.500  3.083273  152.412  6.981837  1.232189
  6980.389  6980.400  0.500  3.577732  152.411  4.258195  0.637715
  6981.393  6981.400  0.500  3.969479  152.401  2.877836  0.374306
  6982.398  6982.400  0.500  4.207636  152.402  2.267973  0.269731
  6983.397  6983.400  0.500  4.237740  152.4  2.200679  0.259955
  6984.390  6984.400  0.500  4.042147  152.39  2.675927  0.341162
  6985.398  6985.400  0.500  3.719299  152.382  3.695421  0.528225
  6986.402  6986.400  0.500  3.375235  152.375  5.212762  0.834719
  6987.398  6987.400  0.500  3.100256  152.371  6.862415  1.198896
  6988.390  6988.400  0.500  2.896550  152.372  8.412951  1.565125
  6989.399  6989.400  0.500  2.762700  152.374  9.618017  1.865003
  6990.404  6990.400  0.500  2.674354  152.359  10.5053  2.092774
  6991.398  6991.400  0.500  2.619900  152.355  11.093  2.247015
  6992.397  6992.400  0.500  2.582800  152.342  11.5113  2.358523
  6993.401  6993.400  0.500  2.557090  152.33  11.8102  2.438638
  6994.407  6994.400  0.500  2.539032  152.317  12.0243  2.497539
  6995.402  6995.400  0.500  2.529814  152.304  12.1346  2.528236
  6996.394  6996.400  0.500  2.526767  152.31  12.1721  2.539924
  6997.401  6997.400  0.500  2.527522  152.303  12.1624  2.539098
  6998.401  6998.400  0.500  2.529251  152.272  12.1389  2.535549
  6999.400  6999.400  0.500  2.529708  152.277  12.1337  2.537075
  7000.394  7000.400  0.500  2.526781  152.279  12.1695  2.548834
  7001.402  7001.400  0.500  2.521955  152.266  12.2273  2.565509
  7002.889  7002.890  0.500  2.513715  152.537  12.3504  2.597249
  7004.924  7004.910  0.500  2.511250  152.811  12.4031  2.607392
  7007.023  7007.020  0.500  2.533745  152.793  12.1258  2.527854
  7009.209  7009.200  0.500  2.581617  152.774  11.5576  2.372464
  7011.469  7011.460  0.500  2.640080  152.764  10.9006  2.198020
  7013.805  7013.790  0.500  2.698120  152.761  10.2857  2.039536
  7016.214  7016.200  0.500  2.741175  152.758  9.852047  1.931736
  7018.687  7018.680  0.500  2.752337  152.748  9.742044  1.906894
  7021.241  7021.240  0.500  2.728556  152.732  9.975441  1.968491
  7023.889  7023.880  0.500  2.686255  152.704  10.4045  2.080749
  7026.611  7026.600  0.500  2.641707  152.689  10.8775  2.208540
  7029.395  7029.390  0.500  2.605422  152.682  11.2789  2.318353
  7032.261  7032.250  0.500  2.579250  152.649  11.5755  2.400650
  7035.201  7035.190  0.500  2.561262  152.616  11.7831  2.459649
  7038.225  7038.210  0.500  2.549418  152.608  11.9228  2.499016
  7041.322  7041.310  0.500  2.542365  152.594  12.0061  2.522031
  7044.488  7044.480  0.500  2.540238  152.566  12.0295  2.529328
  7047.737  7047.730  0.500  2.544151  152.542  11.9806  2.516900
  7051.061  7051.050  0.500  2.554742  152.513  11.8521  2.483463
  7054.460  7054.450  0.500  2.569091  152.517  11.6836  2.439966
  7057.937  7057.930  0.500  2.582773  152.498  11.5234  2.399169
  7061.490  7061.480  0.500  2.592954  152.502  11.407  2.370096
  7065.114  7065.110  0.500  2.596382  152.371  11.3582  2.359250
  7068.821  7068.810  0.500  2.593558  152.351  11.3888  2.368697
  7072.598  7072.590  0.500  2.586540  152.323  11.4669  2.393193
  7076.467  7076.450  0.500  2.578813  152.157  11.5432  2.417302
  7080.390  7080.380  0.500  2.571948  152.267  11.6312  2.443760
  7084.402  7084.390  0.500  2.565634  152.078  11.6903  2.463514
  7088.494  7088.480  0.500  2.560072  152.166  11.7623  2.486929
  7092.647  7092.640  0.500  2.551930  152.107  11.8538  2.516185
  7096.900  7096.880  0.500  2.539519  152.085  12.0002  2.559434
  7101.210  7101.190  0.500  2.524029  152.057  12.1852  2.611639
  7105.576  7105.580  0.500  2.508792  152.016  12.369  2.664676
  7110.054  7110.050  0.500  2.500097  151.923  12.4694  2.696894
  7114.603  7114.590  0.500  2.502043  151.627  12.4209  2.688342
[...]
  7180.593  7180.580  0.500  2.463763  150.351  12.797  2.848178
  7186.198  7186.190  0.500  2.454661  150.252  12.9055  2.883564
  7191.885  7191.870  0.500  2.443818  147.944  12.8458  2.882008
  7197.653  7197.640  0.500  2.434423  150.023  13.1492  2.962949
  7203.482  7203.470  0.500  2.428285  149.913  13.2205  2.988827
  7209.406  7209.390  0.500  2.425379  149.784  13.2475  3.002154
  7215.389  7215.380  0.500  2.423852  149.625  13.2538  3.009460
  7221.460  7221.450  0.500  2.422290  149.493  13.2628  3.017410
  7227.606  7227.590  0.500  2.418948  147.292  13.1112  2.990214
  7233.819  7233.810  0.500  2.412074  149.359  13.387  3.063276
  7240.114  7240.100  0.500  2.403753  149.237  13.4877  3.098944
  7246.487  7246.470  0.500  2.394755  148.929  13.5816  3.133529
  7252.932  7252.920  0.500  2.385809  148.781  13.69  3.171622
  7259.462  7259.450  0.500  2.376591  148.83  13.8213  3.215329
  7266.057  7266.050  0.500  2.369795  148.339  13.8697  3.238244
  7272.729  7272.720  0.500  2.364560  149.013  14.0058  3.279912
  7279.475  7279.470  0.500  2.359818  149.166  14.0869  3.308594
  7286.308  7286.300  0.500  2.353422  148.829  14.1452  3.334479
  7293.223  7293.210  0.500  2.344805  148.853  14.2699  3.376777
  7300.198  7300.190  0.500  2.335770  148.503  14.3656  3.415308
  7307.256  7307.250  0.500  2.327687  148.707  14.5021  3.462080
  7314.387  7314.380  0.500  2.320384  148.528  14.5907  3.496170
  7321.596  7321.590  0.500  2.313669  148.379  14.6743  3.528759
  7328.893  7328.880  0.500  2.306978  148.217  14.7568  3.561304
  7336.255  7336.240  0.500  2.300665  148.089  14.8373  3.592666
  7343.695  7343.680  0.500  2.294734  147.84  14.9006  3.621035
  7351.201  7351.190  0.500  2.287824  147.742  14.9938  3.657825
  7358.794  7358.780  0.500  2.279338  147.584  15.1055  3.700307
  7366.461  7366.450  0.500  2.270725  147.416  15.2188  3.743174
  7374.201  7374.190  0.500  2.261568  147.263  15.3428  3.792249
  7382.024  7382.010  0.500  2.252094  147.074  15.4691  3.840702
  7389.932  7389.910  0.500  2.243359  146.91  15.5874  3.886785
  7397.902  7397.880  0.500  2.234215  146.734  15.7117  3.934366
  7405.929  7405.930  0.500  2.225957  146.534  15.8204  3.977723
  7414.068  7414.050  0.500  2.219220  146.328  15.9049  4.015092
  7422.268  7422.250  0.500  2.212521  146.118  15.9889  4.051491
  7430.520  7430.530  0.500  2.204691  145.907  16.0913  4.094788
  7438.887  7438.880  0.500  2.195377  145.653  16.2136  4.145032
  7447.316  7447.310  0.500  2.186120  145.517  16.3491  4.198186
  7455.801  7455.810  0.500  2.176748  145.777  16.5325  4.264223
  7464.381  7464.390  0.500  2.167378  145.524  16.6592  4.316290
  7473.051  7473.050  0.500  2.157899  145.38  16.8012  4.373935
  7481.778  7481.790  0.500  2.148607  145.093  16.9246  4.426212
  7490.578  7490.600  0.500  2.140132  144.794  17.0335  4.473738
  7499.474  7499.480  0.500  2.133000  144.556  17.1272  4.516608
  7508.462  7508.440  0.500  2.125124  144.238  17.2247  4.562094
  7517.462  7517.480  0.500  2.115764  143.924  17.3488  4.616724
  7526.594  7526.600  0.500  2.104802  143.657  17.5074  4.682361
  7535.779  7535.790  0.500  2.093443  143.354  17.6701  4.749723
  7545.039  7545.060  0.500  2.082832  143.053  17.8211  4.814933
  7554.386  7554.400  0.500  2.072881  142.727  17.9583  4.875686
  7563.796  7563.820  0.500  2.063466  142.397  18.0863  4.933214
  7573.311  7573.310  0.500  2.055227  142.079  18.1952  4.984940
  7582.875  7582.890  0.500  2.047266  141.717  18.2938  5.034815
  7592.565  7592.530  0.500  2.040083  141.287  18.3699  5.074704

File: Eu-L3-Eu2TiO5.xdi
# XDI/1.0 BlueSky/1.10.0 BMM/2023-1.0-py310-tiled
# Beamline.name: BMM (06BM) -- Beamline for Materials Measurement (NIST)
# Beamline.xray_source: NSLS-II three-pole wiggler
# Beamline.collimation: paraboloid mirror, 5 nm Rh on 30 nm Pt
# Beamline.focusing: not in use
# Beamline.harmonic_rejection: flat mirror, Si stripe, pitch = 7.0 mrad relative to beam
# Beamline.software: Bluesky 1.10.0, Ophyd 1.7.0, DataBroker 2.0.0b13, Python 3.10.8, 2023-1.0-py310-tiled
# Detector.I0: 10 cm N2
# Detector.I1: 25 cm N2
# Detector.I2: 25 cm N2
# Element.symbol: Eu
# Element.edge: L3
# Element.reference: Eu
# Element.reference_material: Eu2O3
# Facility.name: NSLS-II
# Facility.energy: 3.0
# Facility.current: 400.3
# Facility.mode: top-off
# Facility.GUP: 123456
# Facility.SAF: 301027
# Facility.cycle: 2023-2
# Mono.name: Si(111)
# Mono.d_spacing: 3.13519
# Mono.encoder_resolution: 0.0000050 deg/ct
# Mono.angle_offset: 16.0754 deg
# Mono.scan_mode: pseudo channel cut
# Mono.scan_type: step
# Mono.direction: forward in energy
# Sample.name: Eu2TiO5
# Sample.prep: Powder in PEG pellet
# Sample.x: 149.848 mm
# Sample.y: 114.690 mm
# Sample.SDD_position: 205.000 mm
# Scan.experimenters: Bruce Ravel
# Scan.edge_energy: 6976.9
# Scan.start_time: 2023-05-08T17:54:46
# Scan.end_time: 2023-05-08T18:01:04
# Scan.transient_id: 75466
# Scan.uid: c3750c6d-ddaa-49b8-908a-367c6a850081
# Scan.plot_hint: ln(I0/It)  --  ln($5/$6)
# Column.1: energy eV
# Column.2: requested_energy eV
# Column.3: measurement_time seconds
# Column.4: xmu
# Column.5: I0 nA
# Column.6: It nA
# Column.7: Ir nA
# ///////////
# sample courtesy Martin Stennett, University of Sheffield
# -----------
# energy  requested_energy  measurement_time  xmu  I0  It  Ir
  6776.910  6776.900  0.500  1.415636  151.75  36.8406  9.103873
  6796.915  6796.900  0.500  1.398704  150.972  37.2776  9.325142
  6816.903  6816.900  0.500  1.381985  151.885  38.1353  9.656251
  6836.920  6836.900  0.500  1.364527  152.021  38.8416  9.954219
  6856.914  6856.900  0.500  1.347738  151.932  39.476  10.2383
  6876.912  6876.900  0.500  1.331356  152.301  40.2257  10.5544
  6896.911  6896.900  0.500  1.315403  152.5  40.9259  10.8629
  6916.909  6916.900  0.500  1.299299  152.452  41.577  11.1577
  6936.883  6936.900  0.500  1.283938  152.4  42.2064  11.4413
  6948.978  6948.900  0.500  1.275692  152.439  42.5667  11.5903
  6952.883  6952.900  0.500  1.272841  152.426  42.6845  11.6315
  6956.895  6956.900  0.500  1.271109  152.404  42.7524  11.6512
  6960.892  6960.900  0.500  1.269161  152.42  42.8404  11.6594
  6964.893  6964.900  0.500  1.268613  152.428  42.8659  11.6186
  6967.386  6967.400  0.500  1.269954  152.434  42.8103  11.5326
  6968.383  6968.400  0.500  1.270775  152.435  42.7754  11.4773
  6969.384  6969.400  0.500  1.272405  152.435  42.7057  11.3928
  6970.385  6970.400  0.500  1.274308  152.42  42.6203  11.3021
  6971.388  6971.400  0.500  1.276202  152.411  42.5373  11.2078
  6972.390  6972.400  0.500  1.279202  152.406  42.4083  11.0681
  6973.386  6973.400  0.500  1.283897  152.399  42.2078  10.8511
  6974.391  6974.400  0.500  1.290388  152.395  41.9336  10.556
  6975.391  6975.400  0.500  1.298297  152.395  41.6034  10.1961
  6976.392  6976.400  0.500  1.309061  152.381  41.1542  9.706563
  6977.396  6977.400  0.500  1.323332  152.37  40.568  9.023811
  6978.393  6978.400  0.500  1.342080  152.348  39.8088  8.070634
  6979.395  6979.400  0.500  1.363324  152.352  38.9731  6.888325
  6980.393  6980.400  0.500  1.382153  152.348  38.2451  5.749590
  6981.393  6981.400  0.500  1.393916  152.344  37.7968  4.972537
  6982.396  6982.400  0.500  1.399685  152.337  37.5778  4.545509
  6983.399  6983.400  0.500  1.400197  152.342  37.5597  4.511464
  6984.401  6984.400  0.500  1.395954  152.339  37.7187  4.874184
  6985.396  6985.400  0.500  1.386125  152.336  38.0905  5.496640
  6986.400  6986.400  0.500  1.372709  152.328  38.6028  6.234147
  6987.400  6987.400  0.500  1.359384  152.32  39.1187  6.901120
  6988.399  6988.400  0.500  1.348084  152.326  39.5649  7.437511
  6989.391  6989.400  0.500  1.339707  152.321  39.8963  7.815031
  6990.396  6990.400  0.500  1.333099  152.317  40.1597  8.082101
  6991.398  6991.400  0.500  1.328359  152.304  40.3471  8.255379
  6992.397  6992.400  0.500  1.325342  152.304  40.4691  8.374884
  6993.397  6993.400  0.500  1.322877  152.288  40.5646  8.461783
  6994.401  6994.400  0.500  1.321282  152.271  40.6248  8.521841
  6995.404  6995.400  0.500  1.320356  152.273  40.6629  8.556475
  6996.398  6996.400  0.500  1.319881  152.257  40.6781  8.570556
  6997.399  6997.400  0.500  1.320175  152.259  40.6667  8.572293
  6998.397  6998.400  0.500  1.320135  152.248  40.6653  8.576275
  6999.396  6999.400  0.500  1.320099  152.232  40.6626  8.584489
  7000.398  7000.400  0.500  1.319836  152.24  40.6753  8.602926
  7001.402  7001.400  0.500  1.319209  152.233  40.699  8.622641
  7002.893  7002.890  0.500  1.317272  152.23  40.7771  8.658183
  7004.924  7004.910  0.500  1.314706  152.223  40.88  8.674964
  7007.027  7007.020  0.500  1.313907  152.216  40.9107  8.611951
  7009.217  7009.200  0.500  1.314997  152.189  40.859  8.470047
  7011.469  7011.460  0.500  1.317949  152.183  40.7368  8.296284
  7013.801  7013.790  0.500  1.320678  152.154  40.618  8.136475
  7016.208  7016.200  0.500  1.322496  152.15  40.5434  8.033206
  7018.685  7018.680  0.500  1.321775  152.144  40.5708  8.024912
  7021.243  7021.240  0.500  1.317210  152.13  40.7529  8.125765
  7023.894  7023.880  0.500  1.311477  152.111  40.9819  8.282678
  7026.609  7026.600  0.500  1.306334  152.104  41.1913  8.448069
  7029.403  7029.390  0.500  1.302621  152.092  41.3415  8.583663
  7032.253  7032.250  0.500  1.299643  152.073  41.4595  8.685064
  7035.199  7035.190  0.500  1.297107  152.055  41.5598  8.761233
  7038.219  7038.210  0.500  1.294683  152.042  41.6572  8.817985
  7041.324  7041.310  0.500  1.292716  152.029  41.7358  8.854894
  7044.488  7044.480  0.500  1.290502  152.002  41.8206  8.879595
  7047.737  7047.730  0.500  1.288293  151.97  41.9045  8.889622
  7051.055  7051.050  0.500  1.286661  151.949  41.967  8.881796
  7054.456  7054.450  0.500  1.285022  151.933  42.0313  8.866595
  7057.943  7057.930  0.500  1.283678  151.921  42.0846  8.848948
  7061.490  7061.480  0.500  1.282169  151.939  42.1531  8.845470
  7065.122  7065.110  0.500  1.280409  151.8  42.1889  8.851983
  7068.827  7068.810  0.500  1.277897  151.794  42.2932  8.888245
  7072.602  7072.590  0.500  1.274846  151.762  42.4136  8.940637
  7076.467  7076.450  0.500  1.271272  151.589  42.517  8.993411
  7080.390  7080.380  0.500  1.268326  151.709  42.6762  9.057176
  7084.400  7084.390  0.500  1.265203  151.522  42.7568  9.102211
  7088.490  7088.480  0.500  1.262223  151.603  42.9074  9.163152
  7092.652  7092.640  0.500  1.258978  151.558  43.034  9.227103
  7096.893  7096.880  0.500  1.255052  151.525  43.1938  9.303739
  7101.206  7101.190  0.500  1.251417  151.504  43.3451  9.383862
  7105.602  7105.580  0.500  1.247825  151.456  43.4874  9.462826
  7110.058  7110.050  0.500  1.244814  151.359  43.5907  9.519969
  7114.594  7114.590  0.500  1.242278  151.084  43.6219  9.533794
  7119.217  7119.210  0.500  1.239961  150.944  43.6827  9.536893
[...]
  7175.061  7175.050  0.500  1.202026  149.811  45.0309  10.0915
  7180.591  7180.580  0.500  1.197792  149.73  45.1976  10.1573
  7186.200  7186.190  0.500  1.194026  149.669  45.3496  10.2302
  7191.882  7191.870  0.500  1.190042  147.365  44.8296  10.1572
  7197.653  7197.640  0.500  1.186561  149.417  45.6123  10.3791
  7203.486  7203.470  0.500  1.183079  149.318  45.7412  10.4422
  7209.402  7209.390  0.500  1.179276  149.163  45.8678  10.4957
  7215.391  7215.380  0.500  1.175461  149.024  46.0002  10.5444
  7221.465  7221.450  0.500  1.171337  148.888  46.1481  10.5992
  7227.600  7227.590  0.500  1.166920  146.754  45.688  10.5199
  7233.825  7233.810  0.500  1.162991  148.755  46.4934  10.7423
  7240.116  7240.100  0.500  1.158771  148.634  46.6519  10.821
  7246.487  7246.470  0.500  1.154558  148.317  46.7491  10.89
  7252.929  7252.920  0.500  1.150359  148.173  46.9002  10.9707
  7259.458  7259.450  0.500  1.146200  148.212  47.1082  11.0632
  7266.066  7266.050  0.500  1.141982  147.719  47.1497  11.1128
  7272.732  7272.720  0.500  1.137516  148.393  47.5771  11.2505
  7279.484  7279.470  0.500  1.133050  148.531  47.8342  11.344
  7286.308  7286.300  0.500  1.128365  148.204  47.9532  11.4104
  7293.221  7293.210  0.500  1.123884  148.216  48.1724  11.5092
  7300.198  7300.190  0.500  1.119622  147.863  48.263  11.5808
  7307.258  7307.250  0.500  1.115030  148.031  48.5401  11.6931
  7314.387  7314.380  0.500  1.110621  147.875  48.7035  11.7792
  7321.600  7321.590  0.500  1.107009  147.73  48.8316  11.8534
  7328.891  7328.880  0.500  1.102571  147.554  48.9903  11.9336
  7336.251  7336.240  0.500  1.097592  147.435  49.1953  12.023
  7343.688  7343.680  0.500  1.092514  147.181  49.3603  12.1056
  7351.199  7351.190  0.500  1.087733  147.049  49.5524  12.1993
  7358.789  7358.780  0.500  1.082995  146.907  49.7398  12.2967
  7366.461  7366.450  0.500  1.078182  146.716  49.9149  12.3928
  7374.201  7374.190  0.500  1.073321  146.568  50.1075  12.4959
  7382.024  7382.010  0.500  1.068983  146.384  50.262  12.5907
  7389.927  7389.910  0.500  1.064097  146.197  50.4436  12.6908
  7397.897  7397.880  0.500  1.059207  146.037  50.6354  12.7937
  7405.957  7405.930  0.500  1.054302  145.828  50.8118  12.8894
  7414.078  7414.050  0.500  1.049154  145.624  51.0024  12.9883
  7422.271  7422.250  0.500  1.044138  145.401  51.1803  13.0844
  7430.529  7430.530  0.500  1.039208  145.19  51.3588  13.1856
  7438.885  7438.880  0.500  1.034208  144.952  51.5315  13.286
  7447.300  7447.310  0.500  1.029266  144.789  51.7288  13.3981
  7455.808  7455.810  0.500  1.024308  144.521  51.8895  13.5
  7464.379  7464.390  0.500  1.019235  144.249  52.0554  13.6046
  7473.049  7473.050  0.500  1.014350  144.124  52.265  13.7212
  7481.790  7481.790  0.500  1.009572  143.828  52.4072  13.8212
  7490.585  7490.600  0.500  1.004318  143.514  52.5684  13.9236
  7499.465  7499.480  0.500  0.998884  143.272  52.7655  14.033
  7508.416  7508.440  0.500  0.993597  142.967  52.9326  14.1369
  7517.462  7517.480  0.500  0.988509  142.679  53.0953  14.2467
  7526.584  7526.600  0.500  0.983298  142.383  53.2621  14.361
  7535.808  7535.790  0.500  0.977972  142.068  53.4278  14.4799
  7545.044  7545.060  0.500  0.972731  141.74  53.5847  14.5956
  7554.379  7554.400  0.500  0.967378  141.443  53.7593  14.713
  7563.799  7563.820  0.500  0.962012  141.105  53.9197  14.8255
  7573.289  7573.310  0.500  0.956753  140.804  54.0882  14.9364
  7582.873  7582.890  0.500  0.951360  140.458  54.247  15.044
  7592.526  7592.530  0.500  0.946162  140.037  54.3664  15.1401