Folder: webxdiviewer/xdidata/Data/Fe (part 2)

File: Fe-Hedenbergite.xdi
# XDI/1.0 BlueSky/1.10.0 BMM/2023-1.0-py310-tiled
# Beamline.name: BMM (06BM) -- Beamline for Materials Measurement (NIST)
# Beamline.xray_source: NSLS-II three-pole wiggler
# Beamline.collimation: paraboloid mirror, 5 nm Rh on 30 nm Pt
# Beamline.focusing: not in use
# Beamline.harmonic_rejection: flat mirror, Si stripe, pitch = 7.0 mrad relative to beam
# Beamline.software: Bluesky 1.10.0, Ophyd 1.7.0, DataBroker 2.0.0b13, Python 3.10.8, 2023-1.0-py310-tiled
# Detector.I0: 10 cm N2
# Detector.I1: 25 cm N2
# Detector.I2: 25 cm N2
# Element.symbol: Fe
# Element.edge: K
# Element.reference: Fe
# Element.reference_material: Fe foil
# Facility.name: NSLS-II
# Facility.energy: 3.0
# Facility.current: 400.2
# Facility.mode: top-off
# Facility.GUP: 123456
# Facility.SAF: 301027
# Facility.cycle: 2023-2
# Mono.name: Si(111)
# Mono.d_spacing: 3.13519
# Mono.encoder_resolution: 0.0000050 deg/ct
# Mono.angle_offset: 16.0754 deg
# Mono.scan_mode: pseudo channel cut
# Mono.scan_type: step
# Mono.direction: forward in energy
# Sample.name: CaFeSi2O6
# Sample.prep: PEG pellet
# Sample.x: 142.329 mm
# Sample.y: 114.126 mm
# Sample.SDD_position: 205.000 mm
# Scan.experimenters: Bruce Ravel
# Scan.edge_energy: 7112.0
# Scan.start_time: 2023-05-05T19:08:19
# Scan.end_time: 2023-05-05T19:16:21
# Scan.transient_id: 74576
# Scan.uid: bfc24902-2e86-461c-92aa-a3c7fc4224bc
# Scan.plot_hint: ln(I0/It)  --  ln($5/$6)
# Column.1: energy eV
# Column.2: requested_energy eV
# Column.3: measurement_time seconds
# Column.4: xmu
# Column.5: I0 nA
# Column.6: It nA
# Column.7: Ir nA
# ///////////
# courtesy Martin Stennett, University of Sheffield
# -----------
# energy  requested_energy  measurement_time  xmu  I0  It  Ir
  6912.003  6912.000  0.500  1.683876  154.182  28.6244  5.374436
  6942.033  6942.000  0.500  1.656969  154.092  29.3878  5.635333
  6972.006  6972.000  0.500  1.630015  154.043  30.1811  5.908954
  7002.011  7002.000  0.500  1.603804  153.971  30.9681  6.186719
  7032.014  7032.000  0.500  1.578614  153.769  31.7166  6.461843
  7062.004  7062.000  0.500  1.552532  152.913  32.3733  6.712534
  7083.978  7084.000  0.500  1.534667  153.087  32.9945  6.902527
  7089.983  7090.000  0.500  1.529650  153.231  33.1915  6.947199
  7096.325  7096.000  0.500  1.524090  153.134  33.3555  6.964651
  7102.003  7102.000  0.500  1.519250  153.114  33.5129  6.938308
  7102.889  7102.900  0.500  1.518528  153.057  33.5248  6.924532
  7103.785  7103.800  0.500  1.517712  153.054  33.5515  6.905843
  7104.683  7104.700  0.500  1.516909  153.036  33.5745  6.884007
  7105.589  7105.600  0.500  1.516314  153.071  33.6021  6.852814
  7106.488  7106.500  0.500  1.515417  153.369  33.6977  6.823741
  7107.383  7107.400  0.500  1.515129  153.376  33.7089  6.760284
  7108.289  7108.300  0.500  1.514178  153.356  33.7366  6.664487
  7109.191  7109.200  0.500  1.513599  153.312  33.7464  6.500820
  7110.099  7110.100  0.500  1.512837  153.29  33.7673  6.147456
  7110.995  7111.000  0.500  1.512314  153.226  33.7709  5.207936
  7111.891  7111.900  0.500  1.511696  153.111  33.7665  3.774097
  7112.798  7112.800  0.500  1.511565  153.023  33.7514  2.943799
  7113.697  7113.700  0.500  1.510774  152.992  33.7712  2.513766
  7114.598  7114.600  0.500  1.510252  152.971  33.7843  2.212222
  7115.500  7115.500  0.500  1.509234  152.886  33.8  2.066845
  7116.393  7116.400  0.500  1.508464  152.893  33.8276  2.004801
  7117.299  7117.300  0.500  1.507930  152.858  33.8378  1.874636
  7118.197  7118.200  0.500  1.508901  152.801  33.7925  1.583249
  7119.104  7119.100  0.500  1.510055  152.78  33.7487  1.253413
  7120.000  7120.000  0.500  1.512860  152.721  33.6413  0.980050
  7120.894  7120.900  0.500  1.516635  152.649  33.4987  0.750790
  7121.801  7121.800  0.500  1.519812  152.608  33.3835  0.594492
  7122.705  7122.700  0.500  1.523430  152.58  33.2569  0.497229
  7123.600  7123.600  0.500  1.528664  152.497  33.0652  0.431403
  7124.501  7124.500  0.500  1.533642  152.466  32.8944  0.384613
  7125.399  7125.400  0.500  1.538308  152.408  32.7287  0.347460
  7126.303  7126.300  0.500  1.540458  152.347  32.6453  0.315572
  7127.203  7127.200  0.500  1.541898  152.22  32.5712  0.283532
  7128.102  7128.100  0.500  1.545580  152.208  32.4489  0.248367
  7128.998  7129.000  0.500  1.549012  152.162  32.328  0.213234
  7129.899  7129.900  0.500  1.551072  152.041  32.2358  0.184014
  7130.804  7130.800  0.500  1.550669  151.98  32.2358  0.168590
  7131.706  7131.700  0.500  1.548319  151.919  32.2987  0.171497
  7132.601  7132.600  0.500  1.546222  151.862  32.3544  0.189786
  7133.496  7133.500  0.500  1.543492  151.881  32.4468  0.216484
  7134.403  7134.400  0.500  1.540918  151.854  32.5249  0.243576
  7135.301  7135.300  0.500  1.538038  151.846  32.6168  0.264298
  7136.203  7136.200  0.500  1.535604  151.836  32.6941  0.276902
  7136.998  7137.000  0.500  1.533871  151.848  32.7534  0.280342
  7140.021  7140.010  0.500  1.528826  151.83  32.9153  0.252199
  7143.214  7143.200  0.500  1.525956  151.818  33.0071  0.246719
  7146.578  7146.560  0.500  1.520714  151.808  33.1785  0.241644
  7150.098  7150.080  0.500  1.514138  151.811  33.398  0.202835
  7153.801  7153.780  0.500  1.508364  151.734  33.5745  0.192129
  7157.669  7157.650  0.500  1.504658  151.721  33.6962  0.201182
  7161.714  7161.700  0.500  1.502824  151.617  33.735  0.204702
  7165.924  7165.910  0.500  1.502458  151.502  33.7216  0.216228
  7170.303  7170.290  0.500  1.500948  151.409  33.752  0.225579
  7174.860  7174.850  0.500  1.498373  151.281  33.8104  0.256118
  7179.598  7179.580  0.500  1.495122  151.23  33.909  0.296316
  7184.490  7184.480  0.500  1.491283  151.149  34.0212  0.290984
  7189.563  7189.550  0.500  1.486617  151.543  34.2695  0.253079
  7194.801  7194.790  0.500  1.481829  151.388  34.3986  0.221731
  7200.224  7200.210  0.500  1.476902  151.292  34.5466  0.255387
  7205.799  7205.790  0.500  1.471415  151.128  34.6992  0.321495
  7211.560  7211.550  0.500  1.466840  150.946  34.8161  0.290527
  7217.496  7217.480  0.500  1.461687  150.821  34.967  0.176913
  7223.597  7223.580  0.500  1.456773  150.678  35.1059  0.168500
  7229.860  7229.850  0.500  1.451892  150.717  35.2869  0.256520
  7236.305  7236.290  0.500  1.446937  150.54  35.4205  0.360038
  7242.914  7242.900  0.500  1.442419  150.457  35.5613  0.358928
  7249.699  7249.690  0.500  1.437806  150.197  35.6641  0.319837
  7256.666  7256.650  0.500  1.432701  150.137  35.8323  0.341503
  7263.784  7263.770  0.500  1.427214  138.58  33.2558  0.297090
  7271.083  7271.070  0.500  1.421080  150.279  36.2855  0.293773
  7278.564  7278.550  0.500  1.414655  150.248  36.5117  0.266424
  7286.202  7286.190  0.500  1.408820  149.827  36.6225  0.241169
  7294.012  7294.000  0.500  1.402438  149.831  36.8578  0.269420
  7302.001  7301.990  0.500  1.396141  147.977  36.6317  0.349086
  7310.161  7310.150  0.500  1.389911  149.645  37.2761  0.392865
  7318.481  7318.470  0.500  1.383727  149.464  37.4621  0.396185
  7326.981  7326.970  0.500  1.377423  149.27  37.6501  0.402095
  7335.663  7335.650  0.500  1.370803  149.054  37.8452  0.423564
  7344.500  7344.490  0.500  1.363965  148.844  38.0513  0.411752
  7353.519  7353.500  0.500  1.357333  148.649  38.2542  0.353254
  7362.698  7362.690  0.500  1.350428  148.424  38.4611  0.318607
  7372.065  7372.050  0.500  1.343587  148.25  38.6795  0.334785
  7381.584  7381.570  0.500  1.336314  147.953  38.8838  0.441982
  7391.282  7391.270  0.500  1.329390  147.788  39.1104  0.488750
  7401.160  7401.150  0.500  1.322016  147.556  39.3381  0.476416
  7411.198  7411.190  0.500  1.314298  147.305  39.5755  0.479619
  7421.401  7421.400  0.500  1.307043  146.977  39.7747  0.489452
  7431.802  7431.790  0.500  1.299208  146.732  40.0207  0.511270
  7442.354  7442.350  0.500  1.291482  146.35  40.2263  0.489979
  7453.091  7453.080  0.500  1.283771  144.959  40.1524  0.460497
  7463.992  7463.980  0.500  1.276172  145.842  40.7049  0.478147
  7475.060  7475.050  0.500  1.268257  145.637  40.9709  0.527292
  7486.303  7486.290  0.500  1.260519  145.245  41.178  0.569716
  7497.727  7497.710  0.500  1.252234  144.904  41.4229  0.604770
  7509.302  7509.290  0.500  1.244482  144.502  41.6295  0.601172
  7521.047  7521.050  0.500  1.236104  144.114  41.8672  0.615950
  7532.985  7532.980  0.500  1.227506  143.718  42.1125  0.620095
  7545.102  7545.080  0.500  1.219327  143.261  42.3235  0.634643
  7557.382  7557.350  0.500  1.210997  142.847  42.5543  0.636536
  7569.811  7569.790  0.500  1.202552  142.392  42.7784  0.638706
  7582.432  7582.410  0.500  1.193795  141.891  43.0027  0.683833
  7595.172  7595.190  0.500  1.185133  141.282  43.1906  0.711925
  7608.172  7608.150  0.500  1.176652  140.259  43.2431  0.725720
  7621.299  7621.280  0.500  1.167839  140.569  43.7223  0.752128
  7634.601  7634.580  0.500  1.159253  140.331  44.0246  0.768183
  7648.027  7648.050  0.500  1.150496  139.818  44.2495  0.801708
  7661.713  7661.700  0.500  1.141550  139.293  44.4797  0.819208
  7675.528  7675.510  0.500  1.132552  138.716  44.6957  0.822726
  7689.480  7689.500  0.500  1.124190  138.386  44.9639  0.837291
  7703.650  7703.660  0.500  1.114394  137.565  45.1369  0.866755
  7718.010  7717.990  0.500  1.105373  137.001  45.3594  0.899799
  7732.480  7732.490  0.500  1.096352  136.394  45.5677  0.925616
  7747.134  7747.160  0.500  1.087298  135.92  45.8223  0.949535
  7761.985  7762.000  0.500  1.078060  135.269  46.0261  0.973636
  7777.013  7777.020  0.500  1.068461  134.614  46.245  1.006970
  7792.187  7792.200  0.500  1.059299  134.037  46.4705  1.033605
  7807.584  7807.560  0.500  1.049995  133.405  46.6835  1.054961
  7823.068  7823.090  0.500  1.041544  132.709  46.8341  1.076228
  7838.773  7838.790  0.500  1.031908  131.704  46.9296  1.098060
  7854.659  7854.660  0.500  1.022120  130.512  46.9623  1.123273
  7870.696  7870.710  0.500  1.012979  130.68  47.4545  1.164312
  7886.929  7886.920  0.500  1.003438  129.941  47.6385  1.198776
  7903.289  7903.310  0.500  0.993642  129.234  47.8456  1.231969
  7919.846  7919.870  0.500  0.984036  128.45  48.0144  1.263499
  7936.575  7936.600  0.500  0.974514  127.479  48.1074  1.292851
  7953.479  7953.500  0.500  0.965093  126.817  48.3106  1.321055
  7964.843  7964.860  0.500  0.958874  126.184  48.3694  1.339783

File: Fe-Ilvaite.xdi
# XDI/1.0 BlueSky/1.10.0 BMM/2023-1.0-py310-tiled
# Beamline.name: BMM (06BM) -- Beamline for Materials Measurement (NIST)
# Beamline.xray_source: NSLS-II three-pole wiggler
# Beamline.collimation: paraboloid mirror, 5 nm Rh on 30 nm Pt
# Beamline.focusing: not in use
# Beamline.harmonic_rejection: flat mirror, Si stripe, pitch = 7.0 mrad relative to beam
# Beamline.software: Bluesky 1.10.0, Ophyd 1.7.0, DataBroker 2.0.0b13, Python 3.10.8, 2023-1.0-py310-tiled
# Detector.I0: 10 cm N2
# Detector.I1: 25 cm N2
# Detector.I2: 25 cm N2
# Element.symbol: Fe
# Element.edge: K
# Element.reference: Fe
# Element.reference_material: Fe foil
# Facility.name: NSLS-II
# Facility.energy: 3.0
# Facility.current: 400.6
# Facility.mode: top-off
# Facility.GUP: 123456
# Facility.SAF: 301027
# Facility.cycle: 2023-2
# Mono.name: Si(111)
# Mono.d_spacing: 3.13519
# Mono.encoder_resolution: 0.0000050 deg/ct
# Mono.angle_offset: 16.0754 deg
# Mono.scan_mode: pseudo channel cut
# Mono.scan_type: step
# Mono.direction: forward in energy
# Sample.name: CaFe(2+)2Fe(3+)(Si2O7)OOH
# Sample.prep: PEG pellet
# Sample.x: 142.329 mm
# Sample.y: 114.126 mm
# Sample.SDD_position: 205.000 mm
# Scan.experimenters: Bruce Ravel
# Scan.edge_energy: 7112.0
# Scan.start_time: 2023-05-05T19:26:02
# Scan.end_time: 2023-05-05T19:34:19
# Scan.transient_id: 74586
# Scan.uid: 17d95919-5ff0-4b7b-b6e3-35f2cf83b0e4
# Scan.plot_hint: ln(I0/It)  --  ln($5/$6)
# Column.1: energy eV
# Column.2: requested_energy eV
# Column.3: measurement_time seconds
# Column.4: xmu
# Column.5: I0 nA
# Column.6: It nA
# Column.7: Ir nA
# ///////////
# courtesy Martin Stennett, University of Sheffield
# -----------
# energy  requested_energy  measurement_time  xmu  I0  It  Ir
  6911.999  6912.000  0.500  1.723868  154.477  27.5548  5.176612
  6942.013  6942.000  0.500  1.696400  154.314  28.2923  5.428331
  6972.026  6972.000  0.500  1.668969  154.267  29.0703  5.695326
  7002.011  7002.000  0.500  1.641958  154.147  29.8429  5.965257
  7032.006  7032.000  0.500  1.615243  153.958  30.6135  6.240222
  7062.004  7062.000  0.500  1.590271  153.062  31.2047  6.473725
  7083.978  7084.000  0.500  1.573082  153.328  31.8009  6.656664
  7089.992  7090.000  0.500  1.569483  153.408  31.9322  6.686778
  7096.150  7096.000  0.500  1.566179  153.329  32.0215  6.690131
  7101.999  7102.000  0.500  1.564517  153.275  32.0634  6.641033
  7102.884  7102.900  0.500  1.564823  153.244  32.0471  6.621401
  7103.785  7103.800  0.500  1.564549  153.191  32.0448  6.600292
  7104.688  7104.700  0.500  1.564685  153.195  32.0413  6.572485
  7105.584  7105.600  0.500  1.564986  153.204  32.0335  6.535190
  7106.490  7106.500  0.500  1.565629  153.161  32.004  6.484074
  7107.385  7107.400  0.500  1.566903  153.138  31.9583  6.413374
  7108.289  7108.300  0.500  1.567707  153.089  31.9224  6.310269
  7109.188  7109.200  0.500  1.569399  153.075  31.8657  6.143067
  7110.093  7110.100  0.500  1.572355  153.026  31.7615  5.790145
  7110.993  7111.000  0.500  1.580460  152.975  31.4946  4.872279
  7111.889  7111.900  0.500  1.593709  152.877  31.0602  3.486743
  7112.798  7112.800  0.500  1.600943  152.794  30.8195  2.694018
  7113.695  7113.700  0.500  1.605652  152.735  30.6628  2.288027
  7114.598  7114.600  0.500  1.609239  152.704  30.5468  2.004830
  7115.500  7115.500  0.500  1.614998  152.667  30.3642  1.861176
  7116.393  7116.400  0.500  1.628654  152.658  29.9505  1.779407
  7117.299  7117.300  0.500  1.658588  152.604  29.0569  1.615261
  7118.201  7118.200  0.500  1.720197  152.543  27.3099  1.287244
  7119.104  7119.100  0.500  1.827467  152.509  24.5266  0.918438
  7120.000  7120.000  0.500  1.969549  152.458  21.2709  0.625915
  7120.896  7120.900  0.500  2.096782  152.419  18.7248  0.422747
  7121.803  7121.800  0.500  2.190777  152.367  17.0392  0.306074
  7122.700  7122.700  0.500  2.291815  152.309  15.3959  0.231864
  7123.602  7123.600  0.500  2.417351  152.261  13.5752  0.178483
  7124.499  7124.500  0.500  2.529569  152.191  12.1286  0.143087
  7125.397  7125.400  0.500  2.590318  152.634  11.4469  0.122341
  7126.303  7126.300  0.500  2.604003  152.523  11.2832  0.110165
  7127.203  7127.200  0.500  2.611232  152.457  11.197  0.098163
  7128.099  7128.100  0.500  2.632924  152.393  10.9522  0.084631
  7128.998  7129.000  0.500  2.667902  152.35  10.5728  0.070481
  7129.903  7129.900  0.500  2.701925  152.235  10.2114  0.058888
  7130.804  7130.800  0.500  2.704889  152.136  10.1745  0.053731
  7131.704  7131.700  0.500  2.676698  152.056  10.4599  0.056100
  7132.594  7132.600  0.500  2.641645  152.014  10.8301  0.064219
  7133.501  7133.500  0.500  2.605768  152.001  11.2247  0.075433
  7134.407  7134.400  0.500  2.572016  151.999  11.6099  0.087570
  7135.301  7135.300  0.500  2.543994  151.985  11.9387  0.097459
  7136.201  7136.200  0.500  2.525250  151.947  12.1616  0.103665
  7136.996  7137.000  0.500  2.512700  151.956  12.3159  0.106166
  7140.021  7140.010  0.500  2.478876  151.938  12.7381  0.098401
  7143.184  7143.200  0.500  2.467281  151.881  12.8818  0.096867
  7146.554  7146.560  0.500  2.427488  151.885  13.4051  0.098478
  7150.080  7150.080  0.500  2.364332  151.854  14.2761  0.087523
  7153.786  7153.780  0.500  2.337646  151.841  14.6609  0.084532
  7157.652  7157.650  0.500  2.340401  151.798  14.6164  0.087942
  7161.701  7161.700  0.500  2.358943  151.707  14.3394  0.087601
  7165.911  7165.910  0.500  2.401854  151.563  13.724  0.088561
  7170.294  7170.290  0.500  2.448697  151.484  13.0891  0.088078
  7174.849  7174.850  0.500  2.465728  151.389  12.86  0.098085
  7179.587  7179.580  0.500  2.453155  151.339  13.0185  0.114500
  7184.490  7184.480  0.500  2.436121  151.243  13.2337  0.113900
  7189.552  7189.550  0.500  2.413924  151.151  13.5225  0.100531
  7194.796  7194.790  0.500  2.395951  150.955  13.7499  0.089266
  7200.219  7200.210  0.500  2.391184  150.861  13.807  0.102777
  7205.799  7205.790  0.500  2.389510  150.711  13.8164  0.128717
  7211.560  7211.550  0.500  2.378231  150.587  13.9616  0.117215
  7217.494  7217.480  0.500  2.366783  150.445  14.109  0.072028
  7223.595  7223.580  0.500  2.360503  150.245  14.179  0.068562
  7229.862  7229.850  0.500  2.352644  150.299  14.296  0.104540
  7236.299  7236.290  0.500  2.346656  150.131  14.3659  0.147032
  7242.910  7242.900  0.500  2.350558  150.018  14.2991  0.145079
  7249.701  7249.690  0.500  2.356356  149.777  14.1936  0.128170
  7256.662  7256.650  0.500  2.358116  149.767  14.1677  0.135746
  7263.789  7263.770  0.500  2.347700  138.327  13.2225  0.118845
  7271.085  7271.070  0.500  2.330792  149.888  14.5719  0.118784
  7278.562  7278.550  0.500  2.319748  149.846  14.7296  0.108171
  7286.200  7286.190  0.500  2.314048  149.43  14.7727  0.097826
  7294.014  7294.000  0.500  2.306226  149.47  14.8927  0.109507
  7302.001  7301.990  0.500  2.294134  147.53  14.8782  0.142353
  7310.161  7310.150  0.500  2.285739  149.535  15.2075  0.161256
  7318.481  7318.470  0.500  2.281585  149.477  15.2649  0.162297
  7326.987  7326.970  0.500  2.273575  149.3  15.3695  0.164980
  7335.663  7335.650  0.500  2.262008  149.105  15.5279  0.174511
  7344.500  7344.490  0.500  2.253114  148.867  15.6417  0.170085
  7353.517  7353.500  0.500  2.247814  148.685  15.7055  0.145746
  7362.698  7362.690  0.500  2.240865  148.473  15.7926  0.131557
  7372.063  7372.050  0.500  2.231261  148.272  15.9234  0.138427
  7381.586  7381.570  0.500  2.222031  148.027  16.0445  0.183198
  7391.284  7391.270  0.500  2.213024  147.783  16.163  0.202980
  7401.160  7401.150  0.500  2.201835  147.543  16.3183  0.198463
  7411.198  7411.190  0.500  2.189832  147.286  16.4865  0.200693
  7421.404  7421.400  0.500  2.181269  146.977  16.5934  0.205031
  7431.802  7431.790  0.500  2.172865  146.672  16.6987  0.214364
  7442.364  7442.350  0.500  2.163710  146.318  16.8117  0.205586
  7453.095  7453.080  0.500  2.153322  144.941  16.8274  0.194123
  7463.988  7463.980  0.500  2.142940  145.765  17.0996  0.201724
  7475.060  7475.050  0.500  2.133696  145.592  17.238  0.222717
  7486.308  7486.290  0.500  2.124063  145.188  17.3565  0.241026
  7497.731  7497.710  0.500  2.114832  144.832  17.4745  0.256065
  7509.312  7509.290  0.500  2.104916  144.446  17.6016  0.255268
  7521.040  7521.050  0.500  2.094066  144.088  17.7495  0.262077
  7532.997  7532.980  0.500  2.084233  143.638  17.8689  0.264081
  7545.098  7545.080  0.500  2.073683  143.246  18.0091  0.271328
  7557.380  7557.350  0.500  2.063089  142.817  18.1465  0.272640
  7569.799  7569.790  0.500  2.052172  142.333  18.2834  0.273856
  7582.395  7582.410  0.500  2.041133  141.891  18.429  0.294018
  7595.177  7595.190  0.500  2.031129  141.312  18.5384  0.306808
  7608.135  7608.150  0.500  2.020784  140.259  18.5915  0.313298
  7621.297  7621.280  0.500  2.010710  140.059  18.753  0.323753
  7634.566  7634.580  0.500  1.999254  139.787  18.9322  0.331547
  7648.055  7648.050  0.500  1.988480  139.293  19.0697  0.346803
  7661.691  7661.700  0.500  1.977861  138.792  19.204  0.354965
  7675.496  7675.510  0.500  1.967036  138.22  19.333  0.357097
  7689.488  7689.500  0.500  1.955899  137.853  19.4976  0.364471
  7703.647  7703.660  0.500  1.944649  137.105  19.6111  0.378079
  7717.975  7717.990  0.500  1.933532  136.538  19.7483  0.393259
  7732.475  7732.490  0.500  1.921929  135.93  19.8899  0.405358
  7747.134  7747.160  0.500  1.910593  135.418  20.0408  0.416574
  7762.005  7762.000  0.500  1.899546  134.818  20.1737  0.428136
  7777.011  7777.020  0.500  1.888245  134.168  20.3045  0.443351
  7792.221  7792.200  0.500  1.877160  133.555  20.4371  0.456259
  7807.569  7807.560  0.500  1.865772  132.964  20.5798  0.466552
  7823.105  7823.090  0.500  1.854458  132.278  20.7065  0.477587
  7838.775  7838.790  0.500  1.843084  131.399  20.8042  0.488568
  7854.651  7854.660  0.500  1.831776  130.164  20.843  0.500146
  7870.693  7870.710  0.500  1.820140  130.316  21.1116  0.519678
  7886.902  7886.920  0.500  1.809032  130.085  21.3096  0.537780
  7903.281  7903.310  0.500  1.797569  129.403  21.4422  0.554357
  7919.852  7919.870  0.500  1.786157  128.695  21.5697  0.569555
  7936.580  7936.600  0.500  1.775006  127.681  21.6398  0.583228
  7953.477  7953.500  0.500  1.763801  127.071  21.779  0.597389
  7964.832  7964.860  0.500  1.756098  126.52  21.8522  0.607146