Folder: webxdiviewer/xdidata/Data/Fe (part 3)

File: Fe-K-Bustamite.xdi
# XDI/1.0 BlueSky/1.5.3
# Beamline.name: 6BM
# Beamline.xray_source: NSLS-II three-pole wiggler
# Beamline.collimation: paraboloid mirror, 5 nm Rh on 30 nm Pt
# Beamline.focusing: not in use
# Beamline.harmonic_rejection: flat mirror, Si stripe, pitch = 7.0 mrad relative to beam
# Detector.i0: 10 cm N2
# Detector.i1: 25 cm N2
# Detector.i2: 25 cm N2
# Element.symbol: Fe
# Element.edge: K
# Facility.name: NSLS-II
# Facility.energy: 3.0
# Facility.current: 400.4
# Facility.mode: top-off
# Facility.gup: 301027
# Facility.saf: 304793
# Facility.cycle: 2020-1
# Mono.name: Si(111)
# Mono.d_spacing: 3.13532
# Mono.encoder_resolution: 0.0000050 deg/ct
# Mono.angle_offset: 16.0581 deg
# Mono.scan_mode: fixed exit
# Mono.scan_type: step
# Mono.direction: forward in energy
# Sample.name: CaMnSi2O6
# Sample.prep: Powder in polyethylene glycol pellet
# Sample.x_position: -122.297 mm
# Sample.y_position: 119.848 mm
# Scan.experimenters: Bruce Ravel
# Scan.edge_energy: 7112.0
# Scan.start_time: 2020-01-14T21:38:46
# Scan.end_time: 2020-01-15T07:16:50
# Scan.transient_id: 19543
# Scan.uid: 09327789-7958-44d7-90ed-12e4cb02125b
# Scan.plot_hint: ln(I0/It)  --  ln($5/$6)
# Scan.sequence: merge of 4 scans
# Column.1: energy eV
# Column.2: requested_energy eV
# Column.3: measurement_time seconds
# Column.4: mutrans
# Column.5: i0
# Column.6: itrans
# Column.7: irefer
# /////
#  Broken Hill, NSW, Australia
# -----
# energy   requested_energy   measurement_time   mutrans   i0   itrans   irefer
6911.99 6912 0.500000 2.743674 71.5789 4.605112 1.269977
6952.02 6952 0.500000 2.694275 70.8712 4.790384 1.345966
6992.01 6992 0.500000 2.645678 70.2488 4.984718 1.424048
7032.01 7032 0.500000 2.597184 69.6481 5.187655 1.504515
7072.01 7072 0.500000 2.549833 69.0389 5.391559 1.583405
7088 7088 0.500000 2.531339 68.8341 5.475949 1.608577
7096.01 7096 0.500000 2.522164 68.7359 5.518546 1.613648
7102.08 7102.1 0.500000 2.515613 68.6318 5.546336 1.603923
7102.48 7102.5 0.500000 2.515291 68.6065 5.546110 1.601939
7102.88 7102.9 0.500000 2.514815 68.5741 5.546139 1.599956
7103.28 7103.3 0.500000 2.514521 68.5555 5.546246 1.596894
7103.69 7103.7 0.500000 2.514002 68.5345 5.547427 1.595055
7104.09 7104.1 0.500000 2.513689 68.5202 5.548052 1.591896
7104.49 7104.5 0.500000 2.513368 68.4835 5.546869 1.588309
7104.9 7104.9 0.500000 2.512770 68.478 5.549692 1.585569
7105.3 7105.3 0.500000 2.512417 68.4634 5.550482 1.582251
7105.69 7105.7 0.500000 2.511950 68.4229 5.549772 1.576481
7106.1 7106.1 0.500000 2.511532 68.421 5.551947 1.572224
7106.5 7106.5 0.500000 2.511311 68.3933 5.550948 1.565849
7106.9 7106.9 0.500000 2.510967 68.4075 5.553979 1.559625
7107.3 7107.3 0.500000 2.510416 68.443 5.559919 1.552959
7107.7 7107.7 0.500000 2.510185 68.4169 5.559138 1.543257
7108.1 7108.1 0.500000 2.509629 68.4655 5.566135 1.533006
7108.5 7108.5 0.500000 2.509419 68.5322 5.572747 1.519220
7108.9 7108.9 0.500000 2.508977 68.5577 5.577275 1.499767
7109.3 7109.3 0.500000 2.508741 68.5522 5.578118 1.472895
7109.7 7109.7 0.500000 2.508694 68.5229 5.576072 1.433547
7110.1 7110.1 0.500000 2.508332 68.4824 5.574732 1.372625
7110.5 7110.5 0.500000 2.508602 68.4706 5.572274 1.272971
7110.89 7110.9 0.500000 2.508845 68.43 5.567602 1.131890
7111.3 7111.3 0.500000 2.509092 68.4107 5.564656 0.971250
7111.69 7111.7 0.500000 2.509203 68.3836 5.561847 0.843947
7112.1 7112.1 0.500000 2.508777 68.3325 5.560044 0.749231
7112.5 7112.5 0.500000 2.508289 68.3053 5.560583 0.685917
7112.9 7112.9 0.500000 2.507817 68.2667 5.560081 0.635653
7113.3 7113.3 0.500000 2.507463 68.2248 5.558605 0.595296
7113.7 7113.7 0.500000 2.506934 68.1675 5.556820 0.559461
7114.1 7114.1 0.500000 2.506468 68.1547 5.558414 0.530160
7114.5 7114.5 0.500000 2.505978 68.131 5.559172 0.507376
7114.9 7114.9 0.500000 2.505905 68.1163 5.558400 0.490863
7115.3 7115.3 0.500000 2.506179 68.0944 5.555125 0.480649
7115.7 7115.7 0.500000 2.506272 68.1248 5.557044 0.474174
7116.1 7116.1 0.500000 2.506989 68.0863 5.549863 0.467293
7116.49 7116.5 0.500000 2.508250 68.0658 5.541327 0.458379
7116.9 7116.9 0.500000 2.510237 68.0434 5.528510 0.441601
7117.31 7117.3 0.500000 2.513396 68.0102 5.508016 0.415736
7117.7 7117.7 0.500000 2.518354 67.9857 5.479065 0.383103
7118.1 7118.1 0.500000 2.525155 67.9624 5.440264 0.347964
7118.5 7118.5 0.500000 2.533657 67.9387 5.392358 0.312347
7118.9 7118.9 0.500000 2.543384 67.8992 5.336941 0.279060
7119.3 7119.3 0.500000 2.554207 67.8418 5.275981 0.247908
7119.7 7119.7 0.500000 2.565384 67.7954 5.212880 0.218432
7120.1 7120.1 0.500000 2.576901 67.8067 5.154108 0.192984
7120.5 7120.5 0.500000 2.588246 67.7273 5.090055 0.170210
7120.9 7120.9 0.500000 2.599219 67.6666 5.029856 0.150834
7121.3 7121.3 0.500000 2.608466 67.6553 4.982780 0.135877
7121.7 7121.7 0.500000 2.616557 67.6376 4.941374 0.122960
7122.1 7122.1 0.500000 2.623798 67.6091 4.903436 0.113496
7122.5 7122.5 0.500000 2.631305 67.4809 4.857693 0.105540
7122.9 7122.9 0.500000 2.641189 67.3456 4.800518 0.098225
7123.31 7123.3 0.500000 2.654497 67.2051 4.725960 0.090940
7123.7 7123.7 0.500000 2.671208 67.0585 4.638219 0.085165
7124.1 7124.1 0.500000 2.690911 66.9176 4.538624 0.079788
7124.5 7124.5 0.500000 2.710589 66.8057 4.442514 0.074438
7124.9 7124.9 0.500000 2.727544 66.6697 4.358988 0.070376
7125.3 7125.3 0.500000 2.739515 66.5646 4.300361 0.066773
7125.7 7125.7 0.500000 2.745241 66.4292 4.267013 0.063156
7126.1 7126.1 0.500000 2.746217 66.2743 4.252844 0.060307
7126.5 7126.5 0.500000 2.742678 66.1448 4.259734 0.058559
7126.9 7126.9 0.500000 2.735843 65.983 4.277930 0.056001
7127.3 7127.3 0.500000 2.726996 65.8441 4.306557 0.053388
7127.71 7127.7 0.500000 2.717059 65.6999 4.341255 0.051215
7128.11 7128.1 0.500000 2.707696 65.5895 4.374404 0.048252
7128.51 7128.5 0.500000 2.698066 65.4876 4.410116 0.045549
7128.9 7128.9 0.500000 2.687271 65.3789 4.450374 0.043596
7129.3 7129.3 0.500000 2.675206 65.303 4.499396 0.041143
7129.7 7129.7 0.500000 2.663848 65.1688 4.540820 0.038863
7130.1 7130.1 0.500000 2.653877 65.037 4.577626 0.037743
7130.5 7130.5 0.500000 2.646006 64.8957 4.603589 0.036818
7130.91 7130.9 0.500000 2.639997 64.7673 4.622234 0.037061
7131.31 7131.3 0.500000 2.635539 64.6179 4.632063 0.037296
7131.71 7131.7 0.500000 2.631740 64.5165 4.642270 0.038685
7132.1 7132.1 0.500000 2.628453 64.4795 4.654784 0.040540
7132.5 7132.5 0.500000 2.625818 64.4572 4.665456 0.042705
7132.9 7132.9 0.500000 2.623465 64.5309 4.681807 0.045702
7133.3 7133.3 0.500000 2.620775 64.5661 4.696841 0.047652
7133.69 7133.7 0.500000 2.618296 64.5852 4.709873 0.051041
7134.1 7134.1 0.500000 2.615864 64.6706 4.727649 0.052985
7134.5 7134.5 0.500000 2.613494 64.8372 4.751029 0.055674
7134.9 7134.9 0.500000 2.611056 64.9524 4.771140 0.057781
7135.3 7135.3 0.500000 2.609411 65.031 4.784846 0.058940
7135.7 7135.7 0.500000 2.608522 65.103 4.794409 0.060234
7136.1 7136.1 0.500000 2.607754 65.168 4.802884 0.061428
7136.5 7136.5 0.500000 2.607740 65.2383 4.808097 0.061542
7136.9 7136.9 0.500000 2.608245 65.2957 4.809927 0.061366
7137.3 7137.3 0.500000 2.608805 65.3301 4.809726 0.061483
7137.7 7137.7 0.500000 2.609897 65.3783 4.808032 0.060624
7138.1 7138.1 0.500000 2.610826 65.4022 4.805382 0.059836
7138.5 7138.5 0.500000 2.611859 65.4198 4.801640 0.058595
7138.9 7138.9 0.500000 2.613207 65.469 4.798840 0.057357
[...]
7140.1 7140.1 0.500000 2.615517 65.4865 4.789034 0.054240
7140.5 7140.5 0.500000 2.615279 65.5114 4.791965 0.053680
7140.9 7140.9 0.500000 2.614140 65.5152 4.797690 0.053303
7141.3 7141.3 0.500000 2.612513 65.5499 4.808020 0.053366
7141.7 7141.7 0.500000 2.610262 65.5368 4.817891 0.052924
7143.09 7143.08 0.710000 2.600423 93.1241 6.913579 0.078230
7147.58 7147.58 0.760000 2.575754 99.7914 7.593644 0.077666
7152.4 7152.39 0.810000 2.570937 106.597 8.150836 0.071588
7157.52 7157.51 0.860000 2.582603 113.301 8.562918 0.077291
7162.94 7162.93 0.910000 2.594542 119.632 8.934114 0.083292
7168.66 7168.65 0.960000 2.585640 125.854 9.482711 0.093737
7174.69 7174.68 1.010000 2.576732 132.142 10.0456 0.113969
7181.02 7181.01 1.060000 2.571194 138.361 10.5769 0.137276
7187.67 7187.65 1.110000 2.559065 144.63 11.191 0.129235
7194.62 7194.6 1.160000 2.545653 151.051 11.8457 0.114306
7201.85 7201.84 1.210000 2.535436 157.674 12.492 0.146894
7209.41 7209.4 1.260000 2.523873 164.061 13.1492 0.178168
7217.27 7217.26 1.310000 2.517168 170.273 13.7389 0.103675
7225.43 7225.42 1.360000 2.513260 175.928 14.2508 0.115553
7233.91 7233.89 1.410000 2.506181 182.445 14.8836 0.204528
7242.67 7242.66 1.460000 2.495438 188.386 15.5343 0.226661
7251.74 7251.74 1.510000 2.483819 194.193 16.2003 0.212787
7261.12 7261.12 1.560000 2.472477 199.352 16.8203 0.223562
7270.8 7270.8 1.610000 2.461694 206.673 17.6271 0.206948
7280.79 7280.79 1.660000 2.450195 212.072 18.2969 0.188671
7291.09 7291.09 1.710000 2.437864 218.243 19.0629 0.187059
7301.69 7301.69 1.760000 2.426112 220.553 19.4925 0.266021
7312.6 7312.6 1.810000 2.414328 230.628 20.6244 0.309115
7323.81 7323.81 1.860000 2.403665 236.336 21.3613 0.322924
7335.32 7335.32 1.910000 2.391401 241.886 22.1329 0.350261
7347.14 7347.14 1.960000 2.378668 248.086 22.9912 0.333261
7359.27 7359.27 2.010000 2.364377 253.598 23.8404 0.288877
7371.7 7371.7 2.060000 2.350980 259.011 24.6776 0.302390
7384.43 7384.43 2.110000 2.337771 264.504 25.5361 0.435578
7397.47 7397.47 2.160000 2.323831 269.936 26.4263 0.447070
7410.82 7410.82 2.210000 2.310631 275.384 27.3178 0.460390
7424.48 7424.47 2.260000 2.296798 280.672 28.2303 0.490833
7438.42 7438.42 2.310000 2.282384 285.82 29.1654 0.504511
7452.68 7452.68 2.360000 2.268056 291.046 30.1273 0.477809
7467.24 7467.24 2.410000 2.254153 290.78 30.5211 0.505578
7482.12 7482.11 2.460000 2.238646 302.316 32.228 0.594418
7497.28 7497.28 2.510000 2.223782 307.151 33.2336 0.661036
7512.77 7512.76 2.560000 2.209005 312.574 34.3238 0.675751
7528.54 7528.54 2.610000 2.194034 317.231 35.3607 0.705540
7544.63 7544.63 2.660000 2.178799 321.639 36.4025 0.737603
7561.02 7561.02 2.710000 2.163526 325.968 37.46 0.748967
7577.73 7577.72 2.760000 2.147922 330.155 38.5383 0.801957
7594.72 7594.72 2.810000 2.132375 333.672 39.5588 0.871357
7612.04 7612.03 2.860000 2.116418 335.293 40.3905 0.913246
7629.65 7629.64 2.910000 2.100478 340.177 41.6375 0.953487
7647.56 7647.56 2.960000 2.084490 343.529 42.7252 1.022130
7665.78 7665.78 3.010000 2.068434 345.991 43.7277 1.059946
7684.3 7684.3 3.060000 2.051980 348.015 44.7131 1.082904
7703.14 7703.13 3.110000 2.035323 350.709 45.8162 1.147849
7722.28 7722.27 3.160000 2.018733 352.312 46.7954 1.217401
7741.71 7741.71 3.210000 2.001695 354.317 47.8701 1.273208
7761.45 7761.45 3.260000 1.984711 354.279 48.6847 1.325021
7781.5 7781.5 3.310000 1.967462 354.669 49.5861 1.392477
7801.86 7801.86 3.360000 1.950073 354.729 50.4643 1.446683
7822.52 7822.52 3.410000 1.932271 354.237 51.2991 1.494523
7843.48 7843.48 3.460000 1.914612 354.313 52.2242 1.552517
7854.08 7854.08 3.490000 1.905970 351.93 52.3231 1.573442

File: Fe-Scorzalite.xdi
# XDI/1.0 BlueSky/1.10.0 BMM/2023-1.0-py310-tiled
# Beamline.name: BMM (06BM) -- Beamline for Materials Measurement (NIST)
# Beamline.xray_source: NSLS-II three-pole wiggler
# Beamline.collimation: paraboloid mirror, 5 nm Rh on 30 nm Pt
# Beamline.focusing: not in use
# Beamline.harmonic_rejection: flat mirror, Si stripe, pitch = 7.0 mrad relative to beam
# Beamline.software: Bluesky 1.10.0, Ophyd 1.7.0, DataBroker 2.0.0b13, Python 3.10.8, 2023-1.0-py310-tiled
# Detector.I0: 10 cm N2
# Detector.I1: 25 cm N2
# Detector.I2: 25 cm N2
# Element.symbol: Fe
# Element.edge: K
# Element.reference: Fe
# Element.reference_material: Fe foil
# Facility.name: NSLS-II
# Facility.energy: 3.0
# Facility.current: 399.8
# Facility.mode: top-off
# Facility.GUP: 123456
# Facility.SAF: 301027
# Facility.cycle: 2023-2
# Mono.name: Si(111)
# Mono.d_spacing: 3.13519
# Mono.encoder_resolution: 0.0000050 deg/ct
# Mono.angle_offset: 16.0754 deg
# Mono.scan_mode: pseudo channel cut
# Mono.scan_type: step
# Mono.direction: forward in energy
# Sample.name: (Fe,Mg)Al2(OH,PO4)2
# Sample.prep: PEG pellet
# Sample.x: 142.329 mm
# Sample.y: 114.126 mm
# Sample.SDD_position: 205.000 mm
# Scan.experimenters: Bruce Ravel
# Scan.edge_energy: 7112.0
# Scan.start_time: 2023-05-05T21:05:32
# Scan.end_time: 2023-05-05T21:13:43
# Scan.transient_id: 74641
# Scan.uid: e7aacf35-d461-4eba-bad8-bccb82b463f0
# Scan.plot_hint: ln(I0/It)  --  ln($5/$6)
# Column.1: energy eV
# Column.2: requested_energy eV
# Column.3: measurement_time seconds
# Column.4: xmu
# Column.5: I0 nA
# Column.6: It nA
# Column.7: Ir nA
# ///////////
# courtesy Martin Stennett, University of Sheffield
# -----------
# energy  requested_energy  measurement_time  xmu  I0  It  Ir
  6911.999  6912.000  0.500  1.473500  154.786  35.465  6.656562
  6942.027  6942.000  0.500  1.445989  154.579  36.4054  6.979397
  6972.012  6972.000  0.500  1.418793  154.557  37.4037  7.321239
  7002.009  7002.000  0.500  1.392307  154.457  38.3828  7.666047
  7032.010  7032.000  0.500  1.366200  154.264  39.3488  8.013938
  7062.010  7062.000  0.500  1.340609  153.337  40.1262  8.317467
  7083.987  7084.000  0.500  1.322071  153.555  40.9351  8.561532
  7089.990  7090.000  0.500  1.317427  153.69  41.1618  8.612714
  7095.986  7096.000  0.500  1.312522  153.642  41.3513  8.632753
  7102.003  7102.000  0.500  1.308192  154.044  41.6395  8.617677
  7102.884  7102.900  0.500  1.307072  154.028  41.6816  8.605964
  7103.785  7103.800  0.500  1.306363  154.006  41.7052  8.581941
  7104.690  7104.700  0.500  1.306057  154.003  41.7172  8.548828
  7105.589  7105.600  0.500  1.305258  153.984  41.7454  8.510447
  7106.492  7106.500  0.500  1.304701  153.949  41.7592  8.453178
  7107.385  7107.400  0.500  1.303964  153.936  41.7864  8.378893
  7108.287  7108.300  0.500  1.303336  153.908  41.8052  8.257277
  7109.195  7109.200  0.500  1.303155  153.868  41.8018  8.050148
  7110.091  7110.100  0.500  1.302804  153.806  41.7996  7.614934
  7110.995  7111.000  0.500  1.302866  153.74  41.7791  6.453647
  7111.893  7111.900  0.500  1.303079  153.658  41.7481  4.670217
  7112.788  7112.800  0.500  1.302602  153.551  41.7388  3.650153
  7113.701  7113.700  0.500  1.302604  153.51  41.7276  3.107798
  7114.596  7114.600  0.500  1.302034  153.476  41.7421  2.736322
  7115.498  7115.500  0.500  1.301421  153.422  41.753  2.553794
  7116.391  7116.400  0.500  1.301318  153.411  41.7543  2.475722
  7117.295  7117.300  0.500  1.302986  153.372  41.6741  2.312641
  7118.203  7118.200  0.500  1.306128  153.332  41.5326  1.947588
  7119.099  7119.100  0.500  1.314247  153.262  41.1778  1.535734
  7120.000  7120.000  0.500  1.334647  153.227  40.3373  1.179922
  7120.898  7120.900  0.500  1.372869  153.188  38.8146  0.872670
  7121.799  7121.800  0.500  1.407802  153.14  37.4704  0.670531
  7122.705  7122.700  0.500  1.428267  153.09  36.6993  0.550107
  7123.602  7123.600  0.500  1.442959  153.048  36.1542  0.472368
  7124.493  7124.500  0.500  1.456161  153.001  35.6691  0.418466
  7125.401  7125.400  0.500  1.455963  152.934  35.6605  0.378911
  7126.299  7126.300  0.500  1.456379  152.871  35.6311  0.345626
  7127.201  7127.200  0.500  1.469127  152.82  35.168  0.306748
  7128.102  7128.100  0.500  1.477531  152.762  34.8604  0.267450
  7128.994  7129.000  0.500  1.476545  152.679  34.8757  0.230657
  7129.903  7129.900  0.500  1.479887  152.603  34.742  0.198735
  7130.800  7130.800  0.500  1.479330  152.518  34.742  0.182136
  7131.704  7131.700  0.500  1.471256  152.44  35.0058  0.185806
  7132.599  7132.600  0.500  1.465640  152.407  35.1953  0.206217
  7133.494  7133.500  0.500  1.466258  152.39  35.1696  0.234462
  7134.400  7134.400  0.500  1.464552  152.37  35.2252  0.263771
  7135.301  7135.300  0.500  1.458826  152.371  35.4275  0.287173
  7136.203  7136.200  0.500  1.453816  152.357  35.6024  0.301777
  7136.996  7137.000  0.500  1.449690  152.332  35.7437  0.306355
  7140.028  7140.010  0.500  1.432649  152.33  36.3574  0.278707
  7143.188  7143.200  0.500  1.407254  152.274  37.2788  0.278673
  7146.561  7146.560  0.500  1.390575  152.259  37.9022  0.276757
  7150.087  7150.080  0.500  1.381588  152.701  38.3553  0.233541
  7153.792  7153.780  0.500  1.374465  152.675  38.6228  0.221264
  7157.656  7157.650  0.500  1.376729  152.628  38.5239  0.230138
  7161.707  7161.700  0.500  1.389044  152.53  38.0277  0.230793
  7165.911  7165.910  0.500  1.391997  152.425  37.8896  0.243085
  7170.294  7170.290  0.500  1.395000  152.336  37.7538  0.252455
  7174.858  7174.850  0.500  1.398634  152.222  37.5887  0.284962
  7179.592  7179.580  0.500  1.393579  152.145  37.7602  0.329956
  7184.494  7184.480  0.500  1.386543  152.053  38.0038  0.325678
  7189.552  7189.550  0.500  1.377060  151.948  38.3394  0.283743
  7194.803  7194.790  0.500  1.369663  151.757  38.5756  0.248955
  7200.224  7200.210  0.500  1.362438  151.655  38.8292  0.287133
  7205.792  7205.790  0.500  1.355902  151.519  39.0486  0.361817
  7211.562  7211.550  0.500  1.350839  151.341  39.2007  0.327643
  7217.489  7217.480  0.500  1.347546  151.21  39.2961  0.199285
  7223.590  7223.580  0.500  1.344013  151.023  39.3862  0.189270
  7229.856  7229.850  0.500  1.338069  151.05  39.6282  0.287774
  7236.305  7236.290  0.500  1.331716  150.877  39.8353  0.405294
  7242.914  7242.900  0.500  1.327593  150.787  39.9759  0.403878
  7249.696  7249.690  0.500  1.325025  150.533  40.011  0.358721
  7256.666  7256.650  0.500  1.321613  150.495  40.1377  0.382867
  7263.782  7263.770  0.500  1.315527  139.332  37.3874  0.334229
  7271.085  7271.070  0.500  1.308992  150.62  40.6814  0.329993
  7278.564  7278.550  0.500  1.300925  150.593  41.0034  0.299305
  7286.200  7286.190  0.500  1.292956  150.149  41.2097  0.271464
  7294.016  7294.000  0.500  1.286487  150.181  41.4858  0.303286
  7302.003  7301.990  0.500  1.279510  148.288  41.2498  0.393480
  7310.163  7310.150  0.500  1.272255  149.972  42.0219  0.443696
  7318.481  7318.470  0.500  1.265894  149.778  42.2356  0.446949
  7326.983  7326.970  0.500  1.259979  149.594  42.434  0.453447
  7335.661  7335.650  0.500  1.254421  149.415  42.6192  0.477238
  7344.502  7344.490  0.500  1.247944  149.191  42.8319  0.463717
  7353.517  7353.500  0.500  1.240363  148.967  43.0929  0.397950
  7362.703  7362.690  0.500  1.232547  148.78  43.3767  0.359908
  7372.067  7372.050  0.500  1.225287  148.547  43.6243  0.377940
  7381.584  7381.570  0.500  1.217246  148.318  43.9087  0.499710
  7391.279  7391.270  0.500  1.209934  148.072  44.1575  0.552504
  7401.160  7401.150  0.500  1.201898  147.815  44.4365  0.538515
  7411.205  7411.190  0.500  1.194158  147.537  44.6976  0.542499
  7421.404  7421.400  0.500  1.186442  147.266  44.9611  0.553482
  7431.798  7431.790  0.500  1.178877  146.977  45.2138  0.577932
  7442.368  7442.350  0.500  1.170972  146.611  45.4589  0.553486
  7453.086  7453.080  0.500  1.163277  145.185  45.3645  0.520856
  7463.992  7463.980  0.500  1.155412  146.112  46.0147  0.540958
  7475.060  7475.050  0.500  1.147078  145.91  46.3356  0.596602
  7486.303  7486.290  0.500  1.138677  145.5  46.5952  0.645130
  7497.727  7497.710  0.500  1.130384  145.175  46.8783  0.685086
  7509.307  7509.290  0.500  1.122030  145.144  47.2613  0.683070
  7521.078  7521.050  0.500  1.113619  144.828  47.5568  0.700083
  7532.997  7532.980  0.500  1.105353  144.438  47.8227  0.704981
  7545.098  7545.080  0.500  1.096765  144.003  48.0899  0.721819
  7557.370  7557.350  0.500  1.088029  143.603  48.3771  0.724370
  7569.828  7569.790  0.500  1.079325  143.153  48.647  0.726864
  7582.434  7582.410  0.500  1.070714  142.671  48.9025  0.778356
  7595.212  7595.190  0.500  1.062068  142.088  49.1254  0.810366
  7608.172  7608.150  0.500  1.053443  141.057  49.1916  0.826003
  7621.294  7621.280  0.500  1.044624  140.898  49.5712  0.853375
  7634.598  7634.580  0.500  1.035667  140.678  49.9392  0.871524
  7648.077  7648.050  0.500  1.026530  140.165  50.214  0.910235
  7661.696  7661.700  0.500  1.017472  139.642  50.4818  0.930191
  7675.536  7675.510  0.500  1.008403  139.095  50.7422  0.935009
  7689.521  7689.500  0.500  0.999152  138.772  51.0948  0.952696
  7703.678  7703.660  0.500  0.990142  138.018  51.2768  0.985633
  7717.962  7717.990  0.500  0.981110  137.422  51.5187  1.022656
  7732.508  7732.490  0.500  0.971945  136.88  51.7879  1.052623
  7747.178  7747.160  0.500  0.962670  136.388  52.0826  1.079749
  7762.008  7762.000  0.500  0.953380  135.747  52.3216  1.107483
  7777.034  7777.020  0.500  0.944136  135.11  52.56  1.144609
  7792.182  7792.200  0.500  0.934687  134.516  52.8255  1.175650
  7807.551  7807.560  0.500  0.925286  133.892  53.0772  1.199776
  7823.089  7823.090  0.500  0.915720  133.265  53.3365  1.226314
  7838.773  7838.790  0.500  0.906514  132.325  53.4499  1.251896
  7854.685  7854.660  0.500  0.897077  131.048  53.4362  1.279044
  7870.701  7870.710  0.500  0.887499  131.306  54.0567  1.327472
  7886.923  7886.920  0.500  0.878027  130.618  54.2853  1.366417
  7903.292  7903.310  0.500  0.868540  129.868  54.4881  1.403956
  7919.846  7919.870  0.500  0.858971  129.148  54.7068  1.441307
  7936.602  7936.600  0.500  0.849623  128.159  54.7975  1.473189
  7953.474  7953.500  0.500  0.840040  127.486  55.0349  1.505505
  7964.837  7964.860  0.500  0.833773  126.917  55.1337  1.528582