Folder: webxdiviewer/xdidata/Data/Gd

Note: xdidata/README.md
# bmm-standards
A pretty webpage for BMM's collection of common XAFS materials

[BMM's common materials collection](./BMM-standards.html)

Plotting of the data will happen soon.

Periodic table adapted from [some guy named Daniel](https://codepen.io/gooseofmusic/pen/PjKdNQ)

[This](https://www.coderstool.com/scss-to-css) is a helpful tool for
dealing with Sassy CSS.

File: Gd-L1-Gd2TiO5.xdi
# XDI/1.0 BlueSky/1.10.0 BMM/2023-1.0-py310-tiled
# Beamline.name: BMM (06BM) -- Beamline for Materials Measurement (NIST)
# Beamline.xray_source: NSLS-II three-pole wiggler
# Beamline.collimation: paraboloid mirror, 5 nm Rh on 30 nm Pt
# Beamline.focusing: not in use
# Beamline.harmonic_rejection: flat mirror, Pt stripe, pitch = 7.0 mrad relative to beam
# Beamline.software: Bluesky 1.10.0, Ophyd 1.7.0, DataBroker 2.0.0b13, Python 3.10.8, 2023-1.0-py310-tiled
# Detector.I0: 10 cm N2
# Detector.I1: 25 cm N2
# Detector.I2: 25 cm N2
# Element.symbol: Gd
# Element.edge: L1
# Element.reference: Gd
# Element.reference_material: Gd2O3
# Facility.name: NSLS-II
# Facility.energy: 3.0
# Facility.current: 400.7
# Facility.mode: top-off
# Facility.GUP: 123456
# Facility.SAF: 301027
# Facility.cycle: 2023-2
# Mono.name: Si(111)
# Mono.d_spacing: 3.13519
# Mono.encoder_resolution: 0.0000050 deg/ct
# Mono.angle_offset: 16.0754 deg
# Mono.scan_mode: pseudo channel cut
# Mono.scan_type: step
# Mono.direction: forward in energy
# Sample.name: Gd2TiO5
# Sample.prep: Powder in PEG pellet
# Sample.x: 149.848 mm
# Sample.y: 114.690 mm
# Sample.SDD_position: 205.000 mm
# Scan.experimenters: Bruce Ravel
# Scan.edge_energy: 8375.6
# Scan.start_time: 2023-05-08T21:44:31
# Scan.end_time: 2023-05-08T21:50:19
# Scan.transient_id: 75642
# Scan.uid: db14f2a7-34ec-48bb-8d73-ce3c7c4dc71f
# Scan.plot_hint: ln(I0/It)  --  ln($5/$6)
# Column.1: energy eV
# Column.2: requested_energy eV
# Column.3: measurement_time seconds
# Column.4: xmu
# Column.5: I0 nA
# Column.6: It nA
# Column.7: Ir nA
# ///////////
# sample courtesy Martin Stennett, University of Sheffield
# -----------
# energy  requested_energy  measurement_time  xmu  I0  It  Ir
  8175.604  8175.600  0.500  1.114759  135.877  44.5668  11.4374
  8195.631  8195.600  0.500  1.102119  135.543  45.023  11.6533
  8215.655  8215.600  0.500  1.092563  135.18  45.3332  11.8503
  8235.621  8235.600  0.500  1.081092  134.788  45.7234  12.0438
  8255.625  8255.600  0.500  1.070040  134.428  46.1082  12.2542
  8275.616  8275.600  0.500  1.061454  134.071  46.3822  12.428
  8295.618  8295.600  0.500  1.051262  133.667  46.716  12.618
  8315.616  8315.600  0.500  1.040226  133.288  47.1005  12.8227
  8335.570  8335.600  0.500  1.030899  132.693  47.3297  12.9949
  8347.582  8347.600  0.500  1.026119  132.287  47.411  13.0776
  8351.575  8351.600  0.500  1.024552  131.971  47.3718  13.0868
  8355.579  8355.600  0.500  1.022738  131.826  47.4057  13.114
  8359.578  8359.600  0.500  1.021016  131.761  47.4642  13.1416
  8363.580  8363.600  0.500  1.019534  131.712  47.5169  13.1697
  8366.077  8366.100  0.500  1.018661  131.673  47.5443  13.1868
  8367.076  8367.100  0.500  1.018378  131.646  47.548  13.1913
  8368.076  8368.100  0.500  1.018127  131.625  47.5521  13.1962
  8369.076  8369.100  0.500  1.017979  131.593  47.5477  13.1964
  8370.074  8370.100  0.500  1.018014  131.577  47.5402  13.1946
  8371.086  8371.100  0.500  1.018178  131.563  47.5275  13.191
  8372.090  8372.100  0.500  1.018140  131.533  47.5184  13.1869
  8373.091  8373.100  0.500  1.018496  131.499  47.4892  13.1752
  8374.092  8374.100  0.500  1.018672  131.481  47.4743  13.167
  8375.088  8375.100  0.500  1.019735  131.462  47.4169  13.1432
  8376.090  8376.100  0.500  1.020894  131.438  47.3534  13.1099
  8377.095  8377.100  0.500  1.023126  131.418  47.2409  13.054
  8378.097  8378.100  0.500  1.026875  131.402  47.0584  12.9718
  8379.091  8379.100  0.500  1.030521  131.387  46.8816  12.8926
  8380.088  8380.100  0.500  1.033723  131.355  46.7203  12.8217
  8381.088  8381.100  0.500  1.036760  131.331  46.5703  12.7533
  8382.094  8382.100  0.500  1.039503  131.305  46.4336  12.6863
  8383.098  8383.100  0.500  1.042630  131.266  46.2748  12.6171
  8384.098  8384.100  0.500  1.046115  131.242  46.1054  12.5408
  8385.099  8385.100  0.500  1.050231  131.21  45.9046  12.4568
  8386.092  8386.100  0.500  1.055215  131.174  45.6639  12.3542
  8387.093  8387.100  0.500  1.061579  131.135  45.3608  12.2256
  8388.098  8388.100  0.500  1.068547  131.096  45.0324  12.0861
  8389.100  8389.100  0.500  1.075725  131.058  44.6974  11.9403
  8390.105  8390.100  0.500  1.081962  131.026  44.4086  11.8145
  8391.105  8391.100  0.500  1.086420  130.996  44.201  11.7287
  8392.102  8392.100  0.500  1.088837  130.976  44.0875  11.6877
  8393.098  8393.100  0.500  1.089279  130.953  44.0604  11.6818
  8394.099  8394.100  0.500  1.088541  130.922  44.0824  11.6938
  8395.102  8395.100  0.500  1.087825  130.909  44.1096  11.7099
  8396.100  8396.100  0.500  1.087020  130.873  44.1328  11.7227
  8397.098  8397.100  0.500  1.086483  130.839  44.1451  11.7249
  8398.093  8398.100  0.500  1.086298  130.809  44.1433  11.7269
  8399.094  8399.100  0.500  1.085421  130.781  44.1724  11.7336
  8400.102  8400.100  0.500  1.084783  130.756  44.1923  11.7408
  8401.592  8401.590  0.500  1.082755  130.717  44.2689  11.7674
  8403.624  8403.610  0.500  1.079080  130.679  44.4189  11.8296
  8405.733  8405.720  0.500  1.073109  130.64  44.6714  11.938
  8407.906  8407.900  0.500  1.065962  130.586  44.9735  12.0723
  8410.175  8410.160  0.500  1.059491  130.535  45.2475  12.2001
  8412.491  8412.490  0.500  1.054995  130.49  45.4357  12.2969
  8414.914  8414.900  0.500  1.051790  130.427  45.5597  12.364
  8417.382  8417.380  0.500  1.050069  130.36  45.6147  12.4011
  8419.954  8419.940  0.500  1.050037  130.323  45.6033  12.4136
  8422.586  8422.580  0.500  1.050737  130.26  45.5494  12.4082
  8425.316  8425.300  0.500  1.051448  130.191  45.493  12.4003
  8428.095  8428.090  0.500  1.051552  130.131  45.4671  12.3955
  8430.957  8430.950  0.500  1.051494  130.056  45.4435  12.3906
  8433.895  8433.890  0.500  1.051952  129.988  45.3991  12.377
  8436.924  8436.910  0.500  1.052742  129.915  45.3378  12.3569
  8440.028  8440.010  0.500  1.053622  129.867  45.2812  12.3316
  8443.195  8443.180  0.500  1.053563  129.775  45.2517  12.3198
  8446.436  8446.430  0.500  1.051821  129.687  45.2999  12.338
  8449.762  8449.750  0.500  1.049030  129.611  45.3998  12.3835
  8453.160  8453.150  0.500  1.045533  129.531  45.5306  12.449
  8456.633  8456.630  0.500  1.042327  129.435  45.643  12.518
  8460.188  8460.180  0.500  1.039251  129.35  45.7537  12.5838
  8463.826  8463.810  0.500  1.036049  129.264  45.8698  12.641
  8467.529  8467.510  0.500  1.033364  129.66  46.1341  12.733
  8471.303  8471.290  0.500  1.030984  129.564  46.2098  12.7652
  8475.161  8475.150  0.500  1.029475  129.455  46.2407  12.7912
  8479.102  8479.080  0.500  1.027919  129.371  46.2827  12.8283
  8483.100  8483.090  0.500  1.025624  129.284  46.3578  12.8773
  8487.191  8487.180  0.500  1.023243  129.183  46.4318  12.9267
  8491.354  8491.340  0.500  1.021292  129.088  46.4883  12.973
  8495.590  8495.580  0.500  1.020105  128.981  46.5049  13.0026
  8499.895  8499.890  0.500  1.019101  128.876  46.5137  13.0244
  8504.289  8504.280  0.500  1.017746  128.76  46.5349  13.0417
  8508.762  8508.750  0.500  1.016369  128.648  46.5585  13.0572
  8513.299  8513.290  0.500  1.014798  128.526  46.5874  13.0803
  8517.927  8517.910  0.500  1.011820  128.381  46.6737  13.1281
  8522.618  8522.600  0.500  1.008718  128.195  46.7509  13.1739
[...]
  8537.152  8537.150  0.500  1.000708  127.916  47.0244  13.3399
  8542.162  8542.150  0.500  0.997783  127.846  47.1363  13.4078
  8547.228  8547.220  0.500  0.995187  127.72  47.2123  13.4552
  8552.378  8552.370  0.500  0.992699  127.589  47.2814  13.4958
  8557.611  8557.600  0.500  0.990135  127.438  47.3467  13.5345
  8562.913  8562.910  0.500  0.987900  127.308  47.4042  13.5754
  8568.291  8568.290  0.500  0.985298  127.16  47.4723  13.625
  8573.761  8573.750  0.500  0.982985  127.004  47.5238  13.6713
  8579.296  8579.280  0.500  0.980405  126.823  47.5787  13.7229
  8584.904  8584.890  0.500  0.978231  126.611  47.6025  13.7664
  8590.599  8590.570  0.500  0.975785  125.533  47.3129  13.7135
  8596.362  8596.340  0.500  0.973393  125.678  47.4812  13.7863
  8602.194  8602.170  0.500  0.970512  125.936  47.7157  13.88
  8608.109  8608.090  0.500  0.967730  125.52  47.6905  13.8992
  8614.098  8614.080  0.500  0.964463  123.769  47.1792  13.7801
  8620.164  8620.150  0.500  0.961047  126.353  48.3292  14.1488
  8626.301  8626.290  0.500  0.957788  126.516  48.5494  14.2448
  8632.526  8632.510  0.500  0.955228  126.085  48.508  14.2678
  8638.809  8638.800  0.500  0.952441  125.549  48.4365  14.2826
  8645.201  8645.170  0.500  0.949691  123.04  47.5993  14.0716
  8651.634  8651.620  0.500  0.946879  125.385  48.643  14.4203
  8658.168  8658.150  0.500  0.943798  125.218  48.7281  14.4789
  8664.767  8664.750  0.500  0.940649  125.046  48.8146  14.539
  8671.430  8671.420  0.500  0.937275  124.874  48.9124  14.6019
  8678.199  8678.170  0.500  0.933985  124.675  48.9953  14.6643
  8685.026  8685.000  0.500  0.930916  124.497  49.0758  14.7295
  8691.930  8691.910  0.500  0.928253  124.267  49.1158  14.7814
  8698.914  8698.890  0.500  0.925355  123.993  49.1497  14.8277
  8705.974  8705.950  0.500  0.922148  121.738  48.4109  14.6401
  8713.094  8713.080  0.500  0.919120  123.755  49.3621  14.9654
  8720.305  8720.290  0.500  0.915986  123.601  49.4556  15.0322
  8727.608  8727.580  0.500  0.912211  123.429  49.5733  15.1038
  8734.958  8734.940  0.500  0.908532  123.244  49.6816  15.1769
  8742.394  8742.380  0.500  0.905337  123.051  49.7623  15.2425
  8749.915  8749.890  0.500  0.901833  122.849  49.8553  15.3126
  8757.499  8757.480  0.500  0.898364  122.635  49.9413  15.3829
  8765.166  8765.150  0.500  0.895113  122.428  50.0194  15.4511
  8772.916  8772.890  0.500  0.891925  122.228  50.0973  15.5199
  8780.723  8780.710  0.500  0.888554  122.02  50.1808  15.5905
  8788.631  8788.610  0.500  0.885097  121.794  50.2612  15.6593
  8796.593  8796.580  0.500  0.881498  121.564  50.3473  15.7324
  8804.654  8804.630  0.500  0.877845  121.371  50.4511  15.8058
  8812.760  8812.750  0.500  0.874358  121.15  50.5355  15.8746
  8820.968  8820.950  0.500  0.870831  120.939  50.6256  15.9459
  8829.242  8829.230  0.500  0.867169  120.711  50.7156  16.0212
  8837.596  8837.580  0.500  0.863619  120.484  50.8  16.0972
  8846.030  8846.010  0.500  0.860015  120.25  50.8844  16.1697
  8854.528  8854.510  0.500  0.856531  120.022  50.9651  16.2453
  8863.107  8863.090  0.500  0.853095  119.785  51.0398  16.3191
  8871.774  8871.750  0.500  0.849106  119.542  51.1397  16.3996
  8880.510  8880.490  0.500  0.845238  119.303  51.2355  16.4803
  8889.317  8889.300  0.500  0.841466  119.068  51.3274  16.5571
  8898.201  8898.180  0.500  0.837832  118.805  51.4009  16.6272
  8907.153  8907.140  0.500  0.834060  118.506  51.4653  16.7001
  8916.197  8916.180  0.500  0.830244  118.224  51.5388  16.7748
  8920.749  8920.730  0.500  0.828417  118.212  51.628  16.8332

File: Gd-L3-GadoliniumOxide.xdi
# XDI/1.0 BlueSky/1.10.0 BMM/2023-1.0-py310-tiled
# Beamline.name: BMM (06BM) -- Beamline for Materials Measurement (NIST)
# Beamline.xray_source: NSLS-II three-pole wiggler
# Beamline.collimation: paraboloid mirror, 5 nm Rh on 30 nm Pt
# Beamline.focusing: not in use
# Beamline.harmonic_rejection: flat mirror, Si stripe, pitch = 7.0 mrad relative to beam
# Beamline.software: Bluesky 1.10.0, Ophyd 1.7.0, DataBroker 2.0.0b13, Python 3.10.8, 2023-1.0-py310-tiled
# Detector.I0: 10 cm N2
# Detector.I1: 25 cm N2
# Detector.I2: 25 cm N2
# Element.symbol: Gd
# Element.edge: L3
# Element.reference: Gd
# Element.reference_material: Gd2O3
# Facility.name: NSLS-II
# Facility.energy: 3.0
# Facility.current: 399.5
# Facility.mode: top-off
# Facility.GUP: 301027
# Facility.SAF: 310583
# Facility.cycle: 2023-2
# Mono.name: Si(111)
# Mono.d_spacing: 3.13519
# Mono.encoder_resolution: 0.0000050 deg/ct
# Mono.angle_offset: 16.0754 deg
# Mono.scan_mode: pseudo channel cut
# Mono.scan_type: step
# Mono.direction: forward in energy
# Sample.name: Gd2O3
# Sample.prep: PEG pellet
# Sample.x: 109.138 mm
# Sample.y: 153.150 mm
# Sample.SDD_position: 205.000 mm
# Scan.experimenters: Bruce Ravel
# Scan.edge_energy: 7242.8
# Scan.start_time: 2023-05-28T13:39:14
# Scan.end_time: 2023-05-28T13:46:36
# Scan.transient_id: 78728
# Scan.uid: 14216575-1ced-4e4f-b610-4821de4d762e
# Scan.plot_hint: ln(It/Ir)  --  ln($6/$7)
# Column.1: energy eV
# Column.2: requested_energy eV
# Column.3: measurement_time seconds
# Column.4: xmu
# Column.5: I0 nA
# Column.6: It nA
# Column.7: Ir nA
# ///////////
# sample courtesy Martin Stennett, University of Sheffield
# -----------
# energy  requested_energy  measurement_time  xmu  I0  It  Ir
  7042.819  7042.800  0.500  1.945082  154.661  149.401  21.3607
  7072.816  7072.800  0.500  1.920842  154.44  150.554  22.0537
  7102.797  7102.800  0.500  1.897017  154.215  151.704  22.758
  7132.827  7132.800  0.500  1.873868  153.45  152.245  23.3739
  7162.808  7162.800  0.500  1.850794  153.346  153.435  24.1065
  7192.809  7192.800  0.500  1.828753  150.585  151.959  24.4067
  7214.806  7214.800  0.500  1.814676  152.328  154.675  25.1951
  7220.799  7220.800  0.500  1.812137  152.114  154.731  25.2683
  7226.799  7226.800  0.500  1.811228  151.866  154.68  25.2829
  7232.810  7232.800  0.500  1.815385  151.994  155.095  25.2457
  7233.683  7233.700  0.500  1.816888  151.954  155.056  25.2013
  7234.585  7234.600  0.500  1.818942  151.922  155.044  25.1477
  7235.487  7235.500  0.500  1.821659  151.864  155.07  25.0837
  7236.390  7236.400  0.500  1.825202  151.856  155.058  24.9931
  7237.284  7237.300  0.500  1.829933  151.825  155.09  24.8802
  7238.189  7238.200  0.500  1.836147  151.813  155.072  24.7232
  7239.090  7239.100  0.500  1.845330  151.808  155.122  24.5052
  7239.993  7240.000  0.500  1.858158  151.752  155.137  24.1951
  7240.906  7240.900  0.500  1.875810  151.742  155.153  23.7743
  7241.796  7241.800  0.500  1.896255  151.769  155.245  23.307
  7242.694  7242.700  0.500  1.922797  151.71  155.176  22.6864
  7243.605  7243.600  0.500  1.967928  151.639  155.183  21.6862
  7244.579  7244.500  0.500  2.044304  150.513  154.049  19.9448
  7245.421  7245.400  0.500  2.143985  148.889  152.505  17.8716
  7246.308  7246.300  0.500  2.243477  151.128  154.781  16.4206
  7247.200  7247.200  0.500  2.308360  151.408  155.054  15.4161
  7248.099  7248.100  0.500  2.351613  151.482  155.172  14.7748
  7249.007  7249.000  0.500  2.375979  151.45  155.215  14.4231
  7249.906  7249.900  0.500  2.365645  151.401  155.193  14.5709
  7250.799  7250.800  0.500  2.316685  151.373  155.213  15.304
  7251.699  7251.700  0.500  2.247666  151.33  155.193  16.3955
  7252.601  7252.600  0.500  2.178034  151.253  155.151  17.573
  7253.499  7253.500  0.500  2.123332  151.036  154.996  18.5425
  7254.404  7254.400  0.500  2.082363  149.382  153.288  19.1051
  7255.305  7255.300  0.500  2.053485  150.063  154.042  19.7616
  7256.199  7256.200  0.500  2.033559  151.427  155.531  20.3542
  7257.096  7257.100  0.500  2.018913  151.352  155.447  20.6433
  7258.004  7258.000  0.500  2.008676  151.279  155.378  20.8465
  7258.903  7258.900  0.500  2.000860  151.192  155.357  21.0073
  7259.796  7259.800  0.500  1.994988  151.108  155.329  21.1271
  7260.698  7260.700  0.500  1.990928  151  155.255  21.203
  7261.605  7261.600  0.500  1.989011  150.749  155.028  21.2126
  7262.503  7262.500  0.500  1.988965  150.228  154.536  21.1463
  7263.403  7263.400  0.500  1.990078  148.483  152.768  20.881
  7264.298  7264.300  0.500  1.990435  134.14  138.028  18.8596
  7265.196  7265.200  0.500  1.992576  128.18  131.954  17.9911
  7266.100  7266.100  0.500  1.992195  149.499  153.938  20.9964
  7267.001  7267.000  0.500  1.990967  151.155  155.643  21.2552
  7267.802  7267.800  0.500  1.988891  151.359  155.872  21.3306
  7270.820  7270.810  0.500  1.980192  151.512  156.19  21.5609
  7274.003  7274.000  0.500  1.984065  150.417  155.23  21.3455
  7277.371  7277.360  0.500  1.999583  151.907  156.858  21.2373
  7280.893  7280.880  0.500  2.020831  151.829  156.897  20.7959
  7284.597  7284.580  0.500  2.032125  149.318  154.494  20.2474
  7288.458  7288.450  0.500  2.020819  151.591  157.006  20.8107
  7292.513  7292.500  0.500  2.002698  151.585  157.125  21.2073
  7296.716  7296.710  0.500  1.990032  151.485  157.174  21.4843
  7301.093  7301.090  0.500  1.980142  150.688  156.559  21.6129
  7305.655  7305.650  0.500  1.972832  151.415  157.511  21.9039
  7310.395  7310.380  0.500  1.967071  151.31  157.572  22.0389
  7315.294  7315.280  0.500  1.965210  151.213  157.712  22.0996
  7320.352  7320.350  0.500  1.967902  151.123  157.848  22.0592
  7325.601  7325.590  0.500  1.971434  151.025  157.958  21.9968
  7331.026  7331.010  0.500  1.971250  150.94  158.092  22.0195
  7336.601  7336.590  0.500  1.967113  150.846  158.248  22.1326
  7342.368  7342.350  0.500  1.962159  150.533  158.077  22.2184
  7348.292  7348.280  0.500  1.957115  150.541  158.366  22.3716
  7354.393  7354.380  0.500  1.953243  150.44  158.514  22.4794
  7360.671  7360.650  0.500  1.948483  150.335  158.655  22.6068
  7367.100  7367.090  0.500  1.939051  150.193  158.762  22.8364
  7373.720  7373.700  0.500  1.928315  150.081  158.886  23.1009
  7380.507  7380.490  0.500  1.923618  149.916  158.978  23.2232
  7387.464  7387.450  0.500  1.922341  149.811  159.174  23.2814
  7394.582  7394.570  0.500  1.921729  149.679  159.281  23.3113
  7401.887  7401.870  0.500  1.921239  149.579  159.481  23.3521
  7409.358  7409.350  0.500  1.916765  149.367  159.569  23.4697
  7416.997  7416.990  0.500  1.906627  149.235  159.725  23.7321
  7424.812  7424.800  0.500  1.898852  149.044  159.818  23.9312
  7432.806  7432.790  0.500  1.894617  148.891  159.93  24.0497
  7440.964  7440.950  0.500  1.890735  148.643  159.966  24.1486
  7449.285  7449.270  0.500  1.885656  148.533  160.212  24.3089
  7457.779  7457.770  0.500  1.877130  148.28  160.267  24.5254
  7466.459  7466.450  0.500  1.869340  148.033  160.321  24.7255
  7475.300  7475.290  0.500  1.864023  148.022  160.637  24.9065
  7484.311  7484.300  0.500  1.859769  147.804  160.775  25.034
  7493.500  7493.490  0.500  1.855303  147.602  160.898  25.1653
  7502.857  7502.850  0.500  1.849342  147.408  161.05  25.3398
  7512.384  7512.370  0.500  1.842227  147.144  161.104  25.5293
  7522.083  7522.070  0.500  1.834174  146.882  161.222  25.7545
  7531.963  7531.950  0.500  1.826691  146.661  161.354  25.9691
  7542.007  7541.990  0.500  1.820837  146.392  161.405  26.1299
  7552.204  7552.200  0.500  1.814871  146.142  161.504  26.3024
  7562.602  7562.590  0.500  1.807109  145.841  161.544  26.5139
  7573.167  7573.150  0.500  1.799474  145.565  161.612  26.7282
  7583.897  7583.880  0.500  1.792793  145.209  161.574  26.9012
  7594.804  7594.780  0.500  1.785647  144.818  161.537  27.0879
  7605.871  7605.850  0.500  1.778853  143.985  161.041  27.1888
  7617.110  7617.090  0.500  1.772311  143.647  161.078  27.3736
  7628.526  7628.510  0.500  1.764936  143.769  161.675  27.6783
  7640.113  7640.090  0.500  1.756896  143.433  161.612  27.891
  7651.865  7651.850  0.500  1.748828  143.051  161.603  28.1154
  7663.802  7663.780  0.500  1.740696  142.697  161.617  28.3473
  7675.898  7675.880  0.500  1.732685  142.3  161.567  28.5665
  7688.177  7688.150  0.500  1.725662  138.597  157.81  28.0989
  7700.598  7700.590  0.500  1.718585  141.986  162.072  29.0627
  7713.221  7713.210  0.500  1.710268  141.601  162.135  29.3167
  7726.006  7725.990  0.500  1.702028  141.182  162.043  29.5426
  7738.963  7738.950  0.500  1.693543  140.533  161.705  29.7322
  7752.096  7752.080  0.500  1.684944  140.273  161.909  30.0269
  7765.388  7765.380  0.500  1.677186  139.806  161.74  30.229
  7778.862  7778.850  0.500  1.670099  139.311  161.617  30.421
  7792.511  7792.500  0.500  1.661584  138.825  161.51  30.6607
  7806.317  7806.310  0.500  1.652041  138.361  161.429  30.9392
  7820.309  7820.300  0.500  1.643001  137.871  161.337  31.2023
  7834.469  7834.460  0.500  1.634470  137.364  161.128  31.429
  7848.802  7848.790  0.500  1.626700  136.767  160.957  31.6405
  7863.299  7863.290  0.500  1.618561  136.289  160.803  31.8685
  7877.972  7877.960  0.500  1.609882  135.752  160.66  32.1178
  7892.817  7892.800  0.500  1.600268  135.212  160.488  32.3933
  7907.832  7907.820  0.500  1.591663  134.629  160.27  32.6288