Folder: webxdiviewer/xdidata/Data/Hf

Note: xdidata/README.md
# bmm-standards
A pretty webpage for BMM's collection of common XAFS materials

[BMM's common materials collection](./BMM-standards.html)

Plotting of the data will happen soon.

Periodic table adapted from [some guy named Daniel](https://codepen.io/gooseofmusic/pen/PjKdNQ)

[This](https://www.coderstool.com/scss-to-css) is a helpful tool for
dealing with Sassy CSS.

File: Hf-L1-HafniumOxide.xdi
# XDI/1.0 BlueSky/1.10.0 BMM/2023-1.0-py310-tiled
# Beamline.name: BMM (06BM) -- Beamline for Materials Measurement (NIST)
# Beamline.xray_source: NSLS-II three-pole wiggler
# Beamline.collimation: paraboloid mirror, 5 nm Rh on 30 nm Pt
# Beamline.focusing: not in use
# Beamline.harmonic_rejection: flat mirror, Pt stripe, pitch = 7.0 mrad relative to beam
# Beamline.software: Bluesky 1.10.0, Ophyd 1.7.0, DataBroker 2.0.0b13, Python 3.10.8, 2023-1.0-py310-tiled
# Detector.I0: 10 cm N2
# Detector.I1: 25 cm N2
# Detector.I2: 25 cm N2
# Element.symbol: Hf
# Element.edge: L1
# Element.reference: Hf
# Element.reference_material: HfO2
# Facility.name: NSLS-II
# Facility.energy: 3.0
# Facility.current: 400.2
# Facility.mode: top-off
# Facility.GUP: 301027
# Facility.SAF: 310583
# Facility.cycle: 2023-2
# Mono.name: Si(111)
# Mono.d_spacing: 3.13519
# Mono.encoder_resolution: 0.0000050 deg/ct
# Mono.angle_offset: 16.0754 deg
# Mono.scan_mode: pseudo channel cut
# Mono.scan_type: step
# Mono.direction: forward in energy
# Sample.name: HfO2
# Sample.prep: PEG pellet
# Sample.x: 109.138 mm
# Sample.y: 153.150 mm
# Sample.SDD_position: 205.000 mm
# Scan.experimenters: Bruce Ravel
# Scan.edge_energy: 11270.7
# Scan.start_time: 2023-05-28T18:46:13
# Scan.end_time: 2023-05-28T18:54:35
# Scan.transient_id: 78924
# Scan.uid: 71f64184-40ab-423c-a042-6f1c878ffd89
# Scan.plot_hint: ln(It/Ir)  --  ln($6/$7)
# Column.1: energy eV
# Column.2: requested_energy eV
# Column.3: measurement_time seconds
# Column.4: xmu
# Column.5: I0 nA
# Column.6: It nA
# Column.7: Ir nA
# ///////////
# sample courtesy Martin Stennett, University of Sheffield
# -----------
# energy  requested_energy  measurement_time  xmu  I0  It  Ir
  11070.695  11070.700  0.500  2.290282  77.6508  126.9  12.8471
  11100.752  11100.700  0.500  2.276973  77.1248  126.204  12.9478
  11130.706  11130.700  0.500  2.262399  76.5952  125.532  13.0679
  11160.777  11160.700  0.500  2.252568  76.0859  124.874  13.1279
  11190.729  11190.700  0.500  2.238640  75.5119  124.104  13.2299
  11220.764  11220.700  0.500  2.229237  74.9664  123.366  13.2754
  11242.681  11242.700  0.500  2.222601  74.002  121.897  13.2048
  11248.670  11248.700  0.500  2.220965  74.5042  122.778  13.322
  11254.682  11254.700  0.500  2.219572  74.3828  122.606  13.3219
  11260.668  11260.700  0.500  2.219492  74.2461  122.42  13.3026
  11261.555  11261.600  0.500  2.219554  74.2139  122.358  13.2951
  11262.458  11262.500  0.500  2.220036  74.1902  122.334  13.2861
  11263.379  11263.400  0.500  2.220375  74.1595  122.287  13.2765
  11264.272  11264.300  0.500  2.220907  74.1428  122.264  13.267
  11265.193  11265.200  0.500  2.221632  74.1144  122.206  13.251
  11266.080  11266.100  0.500  2.222346  74.0908  122.178  13.2385
  11266.979  11267.000  0.500  2.223575  74.0664  122.158  13.2201
  11267.878  11267.900  0.500  2.224759  74.0497  122.115  13.1998
  11268.778  11268.800  0.500  2.226717  74.0186  122.08  13.1702
  11269.661  11269.700  0.500  2.229085  74.0035  122.055  13.1364
  11270.588  11270.600  0.500  2.232527  73.9797  122.013  13.0867
  11271.487  11271.500  0.500  2.237329  73.9553  121.981  13.0207
  11272.398  11272.400  0.500  2.243982  73.9331  121.959  12.932
  11273.293  11273.300  0.500  2.252163  73.9129  121.918  12.8223
  11274.193  11274.200  0.500  2.260934  73.894  121.903  12.7088
  11275.082  11275.100  0.500  2.268423  74.1189  122.283  12.6532
  11275.983  11276.000  0.500  2.275349  74.1068  122.261  12.5637
  11276.878  11276.900  0.500  2.282309  74.0846  122.237  12.4741
  11277.801  11277.800  0.500  2.289118  74.0665  122.212  12.3869
  11278.685  11278.700  0.500  2.295375  74.0475  122.176  12.306
  11279.608  11279.600  0.500  2.302468  74.0304  122.151  12.2165
  11280.493  11280.500  0.500  2.310355  74.0046  122.109  12.1163
  11281.410  11281.400  0.500  2.320485  73.9802  122.09  11.9924
  11282.400  11282.300  0.500  2.334401  73.9648  122.071  11.8248
  11283.241  11283.200  0.500  2.349043  73.9054  121.97  11.6433
  11284.132  11284.100  0.500  2.366880  73.8805  121.941  11.4347
  11285.039  11285.000  0.500  2.385976  73.8628  121.916  11.2162
  11285.925  11285.900  0.500  2.405041  73.8436  121.879  11.001
  11286.821  11286.800  0.500  2.422820  73.8208  121.864  10.8059
  11287.724  11287.700  0.500  2.438798  73.7909  121.81  10.6299
  11288.632  11288.600  0.500  2.451966  73.7718  121.779  10.4881
  11289.512  11289.500  0.500  2.462693  73.7498  121.764  10.375
  11290.421  11290.400  0.500  2.470474  73.6747  121.627  10.283
  11291.324  11291.300  0.500  2.474636  73.6257  121.565  10.235
  11292.221  11292.200  0.500  2.475811  73.6056  121.52  10.2192
  11293.108  11293.100  0.500  2.474382  73.5829  121.496  10.2318
  11294.005  11294.000  0.500  2.471425  73.5553  121.455  10.2586
  11294.892  11294.900  0.500  2.467102  73.5273  121.414  10.2996
  11295.696  11295.700  0.500  2.462747  73.4848  121.337  10.338
  11298.741  11298.710  0.500  2.444809  72.4707  119.698  10.3829
  11301.926  11301.900  0.500  2.431834  73.4858  121.383  10.6666
  11305.268  11305.260  0.500  2.422345  73.4232  121.286  10.7597
  11308.807  11308.780  0.500  2.405571  73.3341  121.165  10.9308
  11312.515  11312.480  0.500  2.387029  73.2525  121.049  11.1247
  11316.354  11316.350  0.500  2.376129  73.1311  120.88  11.2309
  11320.417  11320.400  0.500  2.369125  72.7267  120.222  11.2482
  11324.635  11324.610  0.500  2.366818  73.16  120.968  11.3442
  11329.000  11328.990  0.500  2.367855  72.5836  120.034  11.2449
  11333.570  11333.550  0.500  2.373240  72.8781  120.558  11.2334
  11338.289  11338.280  0.500  2.381239  72.5308  119.99  11.0914
  11343.213  11343.180  0.500  2.389660  72.665  120.237  11.021
  11348.259  11348.250  0.500  2.393568  72.2518  119.582  10.9182
  11353.494  11353.490  0.500  2.392313  71.851  118.957  10.8748
  11358.920  11358.910  0.500  2.387181  62.2055  103.002  9.464675
  11364.502  11364.490  0.500  2.380835  72.7252  120.449  11.1384
  11370.270  11370.250  0.500  2.377953  72.208  119.618  11.0934
  11376.178  11376.180  0.500  2.372854  70.5773  116.95  10.9014
  11382.301  11382.280  0.500  2.365481  72.4425  120.087  11.2767
  11388.566  11388.550  0.500  2.359082  71.8824  119.185  11.2638
  11395.002  11394.990  0.500  2.353484  70.466  116.864  11.1064
  11401.620  11401.600  0.500  2.351928  72.1194  119.641  11.3881
  11408.422  11408.390  0.500  2.352962  71.9487  119.384  11.3519
  11415.368  11415.350  0.500  2.355050  71.6834  118.996  11.2914
  11422.481  11422.470  0.500  2.354034  71.7246  119.097  11.3125
  11429.773  11429.770  0.500  2.351093  71.5652  118.848  11.3221
  11437.263  11437.250  0.500  2.344896  71.4097  118.642  11.3727
  11444.916  11444.890  0.500  2.338956  71.2605  118.441  11.421
  11452.705  11452.700  0.500  2.335791  71.1072  118.222  11.4361
  11460.711  11460.690  0.500  2.333452  70.9566  118.005  11.4418
  11468.865  11468.850  0.500  2.329100  70.7866  117.762  11.4681
  11477.179  11477.170  0.500  2.324811  69.5154  115.695  11.3152
  11485.667  11485.670  0.500  2.320396  70.5719  117.497  11.5423
  11494.345  11494.350  0.500  2.315076  70.3856  117.219  11.5764
  11503.192  11503.190  0.500  2.311228  70.2086  116.968  11.5961
  11512.209  11512.200  0.500  2.309144  70.035  116.722  11.5959
  11521.390  11521.390  0.500  2.306217  69.8611  116.476  11.6054
  11530.753  11530.750  0.500  2.302804  69.6785  116.216  11.6191
  11540.282  11540.270  0.500  2.298432  69.4725  115.915  11.6397
  11549.979  11549.970  0.500  2.293906  69.2305  115.546  11.6553
  11559.877  11559.850  0.500  2.288766  68.7079  114.728  11.6324
  11569.898  11569.890  0.500  2.283913  67.5267  112.822  11.4948
  11580.123  11580.100  0.500  2.279896  67.5359  112.874  11.5464
  11590.507  11590.490  0.500  2.275994  67.4147  112.728  11.5766
  11601.061  11601.050  0.500  2.271799  67.2684  112.52  11.6038
  11611.788  11611.780  0.500  2.266465  67.1172  112.303  11.6433
  11622.717  11622.680  0.500  2.261559  66.8764  111.96  11.6649
  11633.773  11633.750  0.500  2.256567  66.7584  111.808  11.7073
  11645.009  11644.990  0.500  2.251341  66.6317  111.645  11.7515
  11656.433  11656.410  0.500  2.246700  66.4176  111.336  11.7735
  11668.004  11667.990  0.500  2.242674  66.0884  110.829  11.7671
  11679.776  11679.750  0.500  2.237655  65.9369  110.643  11.8066
  11691.721  11691.680  0.500  2.232349  65.8135  110.482  11.852
  11703.799  11703.780  0.500  2.227014  65.2919  109.646  11.8253
  11716.074  11716.050  0.500  2.221716  65.4267  109.918  11.9176
  11728.502  11728.490  0.500  2.217062  65.1963  109.604  11.9391
  11741.130  11741.110  0.500  2.212280  64.9861  109.295  11.9624
  11753.906  11753.890  0.500  2.206926  64.7622  108.977  11.9916
  11766.861  11766.850  0.500  2.200854  64.5718  108.705  12.0345
  11780.014  11779.980  0.500  2.194665  64.3608  108.402  12.0755
  11793.300  11793.280  0.500  2.189032  64.1503  108.104  12.1103
  11806.755  11806.750  0.500  2.184090  63.8089  107.575  12.1108
  11820.443  11820.400  0.500  2.179037  63.6801  107.421  12.1548
  11834.223  11834.210  0.500  2.173643  63.4622  107.109  12.185
  11848.220  11848.200  0.500  2.167748  63.0676  106.491  12.1863
  11862.397  11862.360  0.500  2.161699  62.8477  106.166  12.2228
  11876.713  11876.690  0.500  2.155605  62.8088  106.167  12.2976
  11891.212  11891.190  0.500  2.149517  62.5615  105.81  12.3311
  11905.900  11905.860  0.500  2.143990  62.3053  105.437  12.3558
  11920.731  11920.700  0.500  2.138455  62.0752  105.105  12.3852
  11935.755  11935.720  0.500  2.131941  61.3906  103.982  12.3329
  11950.928  11950.900  0.500  2.125683  61.6181  104.429  12.4638
  11966.285  11966.260  0.500  2.119613  61.3863  104.097  12.4998
  11981.818  11981.790  0.500  2.113803  61.3094  104.013  12.5625
  11997.512  11997.490  0.500  2.107686  61.0768  103.684  12.5996
  12013.405  12013.360  0.500  2.101766  60.8186  103.306  12.6281
  12029.441  12029.410  0.500  2.095090  60.5735  102.938  12.6675
  12045.653  12045.620  0.500  2.088583  60.1473  102.271  12.6676
  12062.056  12062.010  0.500  2.082223  60.0405  102.147  12.733
  12078.611  12078.570  0.500  2.075728  59.7678  101.744  12.7653
  12095.353  12095.300  0.500  2.069553  59.5264  101.389  12.7996
  12112.238  12112.200  0.500  2.063413  59.2531  100.975  12.8258
  12123.606  12123.560  0.500  2.059115  59.0544  100.681  12.8436