Folder: webxdiviewer/xdidata/Data/Ho

Note: xdidata/README.md
# bmm-standards
A pretty webpage for BMM's collection of common XAFS materials

[BMM's common materials collection](./BMM-standards.html)

Plotting of the data will happen soon.

Periodic table adapted from [some guy named Daniel](https://codepen.io/gooseofmusic/pen/PjKdNQ)

[This](https://www.coderstool.com/scss-to-css) is a helpful tool for
dealing with Sassy CSS.

File: Ho-L3-Ho2TiO5.xdi
# XDI/1.0 BlueSky/1.10.0 BMM/2023-1.0-py310-tiled
# Beamline.name: BMM (06BM) -- Beamline for Materials Measurement (NIST)
# Beamline.xray_source: NSLS-II three-pole wiggler
# Beamline.collimation: paraboloid mirror, 5 nm Rh on 30 nm Pt
# Beamline.focusing: not in use
# Beamline.harmonic_rejection: flat mirror, Pt stripe, pitch = 7.0 mrad relative to beam
# Beamline.software: Bluesky 1.10.0, Ophyd 1.7.0, DataBroker 2.0.0b13, Python 3.10.8, 2023-1.0-py310-tiled
# Detector.I0: 10 cm N2
# Detector.I1: 25 cm N2
# Detector.I2: 25 cm N2
# Element.symbol: Ho
# Element.edge: L3
# Element.reference: Ho
# Element.reference_material: Ho2O3
# Facility.name: NSLS-II
# Facility.energy: 3.0
# Facility.current: 399.1
# Facility.mode: top-off
# Facility.GUP: 123456
# Facility.SAF: 301027
# Facility.cycle: 2023-2
# Mono.name: Si(111)
# Mono.d_spacing: 3.13519
# Mono.encoder_resolution: 0.0000050 deg/ct
# Mono.angle_offset: 16.0754 deg
# Mono.scan_mode: pseudo channel cut
# Mono.scan_type: step
# Mono.direction: forward in energy
# Sample.name: Ho2TiO5
# Sample.prep: Powder in PEG pellet
# Sample.x: 149.848 mm
# Sample.y: 114.690 mm
# Sample.SDD_position: 205.000 mm
# Scan.experimenters: Bruce Ravel
# Scan.edge_energy: 8071.1
# Scan.start_time: 2023-05-08T18:57:50
# Scan.end_time: 2023-05-08T19:03:39
# Scan.transient_id: 75514
# Scan.uid: ce17edd1-b616-4636-ba21-0e7eea7ad56e
# Scan.plot_hint: ln(I0/It)  --  ln($5/$6)
# Column.1: energy eV
# Column.2: requested_energy eV
# Column.3: measurement_time seconds
# Column.4: xmu
# Column.5: I0 nA
# Column.6: It nA
# Column.7: Ir nA
# ///////////
# sample courtesy Martin Stennett, University of Sheffield
# -----------
# energy  requested_energy  measurement_time  xmu  I0  It  Ir
  7871.119  7871.100  0.500  0.759619  139.57  65.2973  21.3437
  7891.186  7891.100  0.500  0.749786  139.288  65.8089  21.6889
  7911.155  7911.100  0.500  0.740094  138.967  66.2969  22.029
  7931.135  7931.100  0.500  0.730370  138.583  66.7596  22.3558
  7951.125  7951.100  0.500  0.720831  137.357  66.8036  22.5509
  7971.121  7971.100  0.500  0.711245  138.077  67.8002  23.067
  7991.083  7991.100  0.500  0.701647  136.717  67.7798  23.2336
  8011.090  8011.100  0.500  0.692372  136.298  68.202  23.5525
  8031.082  8031.100  0.500  0.684011  135.852  68.5494  23.8264
  8043.083  8043.100  0.500  0.679910  135.614  68.7108  23.9411
  8047.081  8047.100  0.500  0.678859  135.501  68.7255  23.9539
  8051.078  8051.100  0.500  0.678401  135.365  68.6878  23.9267
  8055.081  8055.100  0.500  0.678929  135.141  68.5382  23.833
  8059.086  8059.100  0.500  0.680761  132.347  66.9984  23.1942
  8061.571  8061.600  0.500  0.684052  135.301  68.2687  23.4979
  8062.575  8062.600  0.500  0.686166  135.23  68.0885  23.3501
  8063.582  8063.600  0.500  0.688907  135.179  67.8767  23.1623
  8064.581  8064.600  0.500  0.692970  135.137  67.5806  22.9006
  8065.580  8065.600  0.500  0.698464  135.073  67.1781  22.5528
  8066.580  8066.600  0.500  0.703932  134.987  66.7697  22.1941
  8067.579  8067.600  0.500  0.709610  134.866  66.3319  21.8164
  8068.590  8068.600  0.500  0.717267  134.538  65.6661  21.2857
  8069.585  8069.600  0.500  0.728054  131.07  63.2867  20.084
  8070.591  8070.600  0.500  0.745767  131.471  62.3657  19.0771
  8071.586  8071.600  0.500  0.770818  134.966  62.4398  18.0493
  8072.593  8072.600  0.500  0.804226  135.006  60.4063  16.0726
  8073.591  8073.600  0.500  0.841520  134.939  58.1661  14.0356
  8074.590  8074.600  0.500  0.871319  134.912  56.447  12.6059
  8075.591  8075.600  0.500  0.888441  134.811  55.4471  11.8472
  8076.591  8076.600  0.500  0.894510  134.72  55.0747  11.5178
  8077.596  8077.600  0.500  0.890036  134.469  55.2183  11.5907
  8078.598  8078.600  0.500  0.876080  132.154  55.0303  11.9733
  8079.595  8079.600  0.500  0.854932  130.176  55.3653  12.8069
  8080.593  8080.600  0.500  0.833127  134.69  58.548  14.4003
  8081.599  8081.600  0.500  0.813306  134.84  59.7868  15.5038
  8082.599  8082.600  0.500  0.798199  134.79  60.6743  16.3381
  8083.603  8083.600  0.500  0.788189  134.757  61.2695  16.9049
  8084.587  8084.600  0.500  0.780771  134.728  61.7124  17.3083
  8085.600  8085.600  0.500  0.775317  134.665  62.021  17.605
  8086.599  8086.600  0.500  0.771054  134.609  62.2601  17.8201
  8087.604  8087.600  0.500  0.768293  134.546  62.403  17.9718
  8088.600  8088.600  0.500  0.766522  134.427  62.4584  18.056
  8089.600  8089.600  0.500  0.765306  134.221  62.4384  18.0811
  8090.603  8090.600  0.500  0.765247  132.689  61.7293  17.8697
  8091.606  8091.600  0.500  0.765532  129.018  60.0045  17.3405
  8092.604  8092.600  0.500  0.766235  134.263  62.3999  17.9937
  8093.596  8093.600  0.500  0.766824  134.71  62.571  18.0273
  8094.600  8094.600  0.500  0.767380  134.668  62.5167  18.016
  8095.598  8095.600  0.500  0.767660  134.622  62.4776  18.0349
  8097.093  8097.090  0.500  0.767063  134.568  62.4902  18.1097
  8099.125  8099.110  0.500  0.765806  134.484  62.5295  18.2039
  8101.234  8101.220  0.500  0.765848  134.428  62.5007  18.1627
  8103.409  8103.400  0.500  0.767752  134.367  62.3536  17.9775
  8105.669  8105.660  0.500  0.770523  134.309  62.1545  17.7308
  8108.004  8107.990  0.500  0.774239  134.259  61.9006  17.4376
  8110.411  8110.400  0.500  0.777510  134.213  61.6774  17.1497
  8112.889  8112.880  0.500  0.779411  134.15  61.5315  16.9974
  8115.442  8115.440  0.500  0.777802  134.097  61.6062  17.0847
  8118.087  8118.080  0.500  0.773433  134.046  61.8525  17.3291
  8120.802  8120.800  0.500  0.767613  133.954  62.1708  17.6012
  8123.595  8123.590  0.500  0.762736  133.859  62.4304  17.818
  8126.461  8126.450  0.500  0.759212  133.8  62.6229  17.9794
  8129.402  8129.390  0.500  0.756724  133.687  62.726  18.1036
  8132.419  8132.410  0.500  0.755213  133.636  62.7971  18.1949
  8135.523  8135.510  0.500  0.754117  133.544  62.8225  18.2553
  8138.701  8138.680  0.500  0.753697  133.469  62.8136  18.296
  8141.932  8141.930  0.500  0.752979  133.364  62.8091  18.3134
  8145.257  8145.250  0.500  0.752347  133.283  62.811  18.3037
  8148.658  8148.650  0.500  0.751542  133.173  62.8094  18.2619
  8152.148  8152.130  0.500  0.750996  133.05  62.7856  18.1955
  8155.698  8155.680  0.500  0.749948  132.986  62.8215  18.1552
  8159.328  8159.310  0.500  0.749021  132.874  62.8267  18.1364
  8163.027  8163.010  0.500  0.748037  132.775  62.8419  18.1517
  8166.798  8166.790  0.500  0.746792  132.696  62.8824  18.1901
  8170.658  8170.650  0.500  0.745595  132.595  62.9098  18.2261
  8174.585  8174.580  0.500  0.744213  132.486  62.9454  18.2647
  8178.599  8178.590  0.500  0.742680  132.368  62.9856  18.3115
  8182.686  8182.680  0.500  0.740751  132.475  63.1583  18.3973
  8186.846  8186.840  0.500  0.738582  132.734  63.4193  18.5011
  8191.097  8191.080  0.500  0.736108  132.638  63.53  18.5679
  8195.401  8195.390  0.500  0.733420  132.507  63.6381  18.6679
  8199.793  8199.780  0.500  0.730870  132.404  63.7513  18.7971
  8204.262  8204.250  0.500  0.728608  132.293  63.8418  18.9218
  8208.800  8208.790  0.500  0.726865  132.153  63.8855  18.9957
  8213.418  8213.410  0.500  0.725217  132.06  63.9462  19.0157
  8218.114  8218.100  0.500  0.723835  131.884  63.9489  19.0036
  8222.888  8222.870  0.500  0.722711  131.746  63.954  19.0063
  8227.739  8227.720  0.500  0.721440  131.682  64.0041  19.0125
  8232.664  8232.650  0.500  0.719988  131.555  64.0354  18.9938
  8237.670  8237.650  0.500  0.717777  131.445  64.1236  19.0116
  8242.729  8242.720  0.500  0.715473  131.301  64.2009  19.082
  8247.879  8247.870  0.500  0.713122  131.176  64.2907  19.2018
  8253.106  8253.100  0.500  0.710837  131.017  64.3601  19.3043
  8258.418  8258.410  0.500  0.708669  130.908  64.4458  19.3828
  8263.805  8263.790  0.500  0.706738  130.772  64.5033  19.4304
  8269.270  8269.250  0.500  0.704933  130.651  64.5599  19.4675
  8274.791  8274.780  0.500  0.702903  130.491  64.6121  19.5037
  8280.400  8280.390  0.500  0.700514  130.242  64.643  19.5365
  8286.078  8286.070  0.500  0.697997  130.181  64.7756  19.6202
  8291.853  8291.840  0.500  0.695606  130.017  64.849  19.7171
  8297.680  8297.670  0.500  0.693369  129.884  64.9277  19.81
  8303.599  8303.590  0.500  0.691028  129.761  65.018  19.8943
  8309.585  8309.580  0.500  0.688407  129.636  65.126  19.958
  8315.663  8315.650  0.500  0.685809  129.457  65.2053  20.0075
  8321.804  8321.790  0.500  0.683612  129.3  65.2695  20.0491
  8328.023  8328.010  0.500  0.681613  129.155  65.3267  20.0916
  8334.313  8334.300  0.500  0.679435  128.819  65.2986  20.1137
  8340.683  8340.670  0.500  0.676871  128.602  65.3561  20.1794
  8347.142  8347.120  0.500  0.674560  128.327  65.3671  20.2323
  8353.663  8353.650  0.500  0.671922  127.88  65.3116  20.2767
  8360.264  8360.250  0.500  0.669718  127.761  65.3947  20.3656
  8366.941  8366.920  0.500  0.666692  127.578  65.4992  20.4644
  8373.692  8373.670  0.500  0.664203  127.506  65.6253  20.5532
  8380.521  8380.500  0.500  0.661321  127.389  65.754  20.634
  8387.428  8387.410  0.500  0.658832  127.138  65.7881  20.6833
  8394.404  8394.390  0.500  0.656069  126.929  65.8619  20.7546
  8401.474  8401.450  0.500  0.653457  126.75  65.9408  20.8406
  8408.604  8408.580  0.500  0.650544  126.576  66.0427  20.9346
  8415.817  8415.790  0.500  0.648086  126.383  66.104  21.0087
  8423.097  8423.080  0.500  0.645267  126.199  66.1945  21.0842
  8430.466  8430.440  0.500  0.642471  126.025  66.2883  21.1659
  8437.907  8437.880  0.500  0.639491  125.808  66.3713  21.2536
  8445.410  8445.390  0.500  0.636775  125.588  66.4354  21.3246
  8452.998  8452.980  0.500  0.633904  125.394  66.5237  21.4013
  8460.667  8460.650  0.500  0.631110  125.166  66.5886  21.4691
  8468.406  8468.390  0.500  0.628470  124.937  66.6423  21.5429
  8476.258  8476.210  0.500  0.625532  124.7  66.7119  21.6302
  8484.122  8484.110  0.500  0.622367  124.512  66.8221  21.732
  8492.110  8492.080  0.500  0.619311  124.24  66.8801  21.8199
  8500.156  8500.130  0.500  0.616472  124  66.941  21.9044
  8508.299  8508.250  0.500  0.613459  123.713  66.9874  21.9914
  8516.473  8516.450  0.500  0.610458  123.426  67.0328  22.0764
  8524.757  8524.730  0.500  0.607399  122.963  66.9859  22.1157
  8533.105  8533.080  0.500  0.604455  122.515  66.9388  22.1466
  8541.535  8541.510  0.500  0.601337  122.932  67.3763  22.3472
  8550.036  8550.010  0.500  0.598264  122.621  67.4129  22.425
  8558.614  8558.590  0.500  0.595004  122.369  67.4941  22.5209
  8567.295  8567.250  0.500  0.591853  122.067  67.5398  22.6084
  8576.022  8575.990  0.500  0.588939  121.806  67.5921  22.698
  8584.796  8584.800  0.500  0.585778  121.518  67.6457  22.7878
  8593.710  8593.680  0.500  0.582637  108.839  60.7781  20.5395
  8602.651  8602.640  0.500  0.579660  120.519  67.5012  22.8852
  8611.685  8611.680  0.500  0.576403  119.507  67.1526  22.8249
  8616.240  8616.230  0.500  0.574880  113.593  63.9268  21.7565