Folder: webxdiviewer/xdidata/Data/Lu

Note: xdidata/README.md
# bmm-standards
A pretty webpage for BMM's collection of common XAFS materials

[BMM's common materials collection](./BMM-standards.html)

Plotting of the data will happen soon.

Periodic table adapted from [some guy named Daniel](https://codepen.io/gooseofmusic/pen/PjKdNQ)

[This](https://www.coderstool.com/scss-to-css) is a helpful tool for
dealing with Sassy CSS.

File: Lu-L1-Lu2TiO5.xdi
# XDI/1.0 BlueSky/1.10.0 BMM/2023-1.0-py310-tiled
# Beamline.name: BMM (06BM) -- Beamline for Materials Measurement (NIST)
# Beamline.xray_source: NSLS-II three-pole wiggler
# Beamline.collimation: paraboloid mirror, 5 nm Rh on 30 nm Pt
# Beamline.focusing: not in use
# Beamline.harmonic_rejection: flat mirror, Pt stripe, pitch = 7.0 mrad relative to beam
# Beamline.software: Bluesky 1.10.0, Ophyd 1.7.0, DataBroker 2.0.0b13, Python 3.10.8, 2023-1.0-py310-tiled
# Detector.I0: 10 cm N2
# Detector.I1: 25 cm N2
# Detector.I2: 25 cm N2
# Element.symbol: Lu
# Element.edge: L1
# Element.reference: Lu
# Element.reference_material: Lu2O3
# Facility.name: NSLS-II
# Facility.energy: 3.0
# Facility.current: 400.6
# Facility.mode: top-off
# Facility.GUP: 123456
# Facility.SAF: 301027
# Facility.cycle: 2023-2
# Mono.name: Si(111)
# Mono.d_spacing: 3.13519
# Mono.encoder_resolution: 0.0000050 deg/ct
# Mono.angle_offset: 16.0754 deg
# Mono.scan_mode: pseudo channel cut
# Mono.scan_type: step
# Mono.direction: forward in energy
# Sample.name: Lu2TiO5
# Sample.prep: Powder in PEG pellet
# Sample.x: 149.848 mm
# Sample.y: 114.690 mm
# Sample.SDD_position: 205.000 mm
# Scan.experimenters: Bruce Ravel
# Scan.edge_energy: 10870.4
# Scan.start_time: 2023-05-08T23:11:23
# Scan.end_time: 2023-05-08T23:17:06
# Scan.transient_id: 75711
# Scan.uid: 26c7d0ff-6972-44b1-a57b-4815277eecb1
# Scan.plot_hint: ln(I0/It)  --  ln($5/$6)
# Column.1: energy eV
# Column.2: requested_energy eV
# Column.3: measurement_time seconds
# Column.4: xmu
# Column.5: I0 nA
# Column.6: It nA
# Column.7: Ir nA
# ///////////
# sample courtesy Martin Stennett, University of Sheffield
# -----------
# energy  requested_energy  measurement_time  xmu  I0  It  Ir
  10670.465  10670.400  0.500  0.721064  83.087  40.3998  7.211127
  10690.497  10690.400  0.500  0.717008  82.6643  40.3576  7.248302
  10710.472  10710.400  0.500  0.713089  82.2831  40.3292  7.292145
  10730.423  10730.400  0.500  0.709574  81.8839  40.2749  7.328805
  10750.389  10750.400  0.500  0.705937  81.4965  40.2304  7.357438
  10770.421  10770.400  0.500  0.701441  80.3622  39.8492  7.333126
  10790.418  10790.400  0.500  0.697636  79.9543  39.7981  7.377853
  10810.425  10810.400  0.500  0.694241  79.5851  39.749  7.425897
  10830.416  10830.400  0.500  0.691121  78.935  39.5476  7.412484
  10842.370  10842.400  0.500  0.689018  78.9024  39.6144  7.438642
  10846.371  10846.400  0.500  0.688280  78.654  39.5189  7.426694
  10850.365  10850.400  0.500  0.688110  78.751  39.5743  7.440815
  10854.367  10854.400  0.500  0.687785  78.44  39.4308  7.417515
  10858.376  10858.400  0.500  0.687402  78.5526  39.5026  7.430277
  10860.859  10860.900  0.500  0.687580  78.3811  39.4094  7.410692
  10861.857  10861.900  0.500  0.687473  78.4851  39.4659  7.419130
  10862.860  10862.900  0.500  0.687442  78.4923  39.4707  7.416054
  10863.864  10863.900  0.500  0.687641  78.4535  39.4434  7.408093
  10864.873  10864.900  0.500  0.687830  78.4214  39.4197  7.399422
  10865.872  10865.900  0.500  0.687925  78.3845  39.3974  7.387786
  10866.877  10866.900  0.500  0.688192  78.2255  39.3071  7.361543
  10867.866  10867.900  0.500  0.688903  78.0829  39.2075  7.330608
  10868.865  10868.900  0.500  0.689635  78.2821  39.2788  7.327335
  10869.876  10869.900  0.500  0.690368  78.3174  39.2677  7.300366
  10870.896  10870.900  0.500  0.691823  78.3017  39.2028  7.251453
  10871.886  10871.900  0.500  0.693745  78.263  39.1081  7.182510
  10872.897  10872.900  0.500  0.696360  78.2255  38.9873  7.096373
  10873.892  10873.900  0.500  0.699072  78.2009  38.8695  7.009674
  10874.882  10874.900  0.500  0.701466  78.1034  38.7282  6.928677
  10875.883  10875.900  0.500  0.703775  78.0108  38.5931  6.849837
  10876.890  10876.900  0.500  0.706110  78.0828  38.5386  6.784340
  10877.881  10877.900  0.500  0.708443  78.0872  38.4509  6.708347
  10878.892  10878.900  0.500  0.711262  78.068  38.3333  6.625517
  10879.904  10879.900  0.500  0.714199  78.0501  38.2121  6.541267
  10880.896  10880.900  0.500  0.717393  78.0258  38.0784  6.449509
  10881.903  10881.900  0.500  0.721117  78.0123  37.9303  6.342316
  10882.905  10882.900  0.500  0.725419  77.9856  37.7545  6.216086
  10883.882  10883.900  0.500  0.730236  77.946  37.554  6.086394
  10884.885  10884.900  0.500  0.734454  77.941  37.3935  5.970230
  10885.893  10885.900  0.500  0.737432  77.9189  37.2718  5.899762
  10886.890  10886.900  0.500  0.738361  77.8879  37.2224  5.878422
  10887.904  10887.900  0.500  0.737596  77.8547  37.235  5.895669
  10888.897  10888.900  0.500  0.736207  77.8482  37.2836  5.932797
  10889.911  10889.900  0.500  0.734475  77.8332  37.3411  5.965472
  10890.899  10890.900  0.500  0.733174  77.8202  37.3834  5.983126
  10891.882  10891.900  0.500  0.732239  77.7973  37.4073  5.984261
  10892.902  10892.900  0.500  0.731546  77.7663  37.4184  5.977507
  10893.886  10893.900  0.500  0.730889  77.7442  37.4323  5.973594
  10894.895  10894.900  0.500  0.730040  77.7214  37.4531  5.974580
  10896.415  10896.390  0.500  0.728810  77.7013  37.4896  5.991078
  10898.425  10898.410  0.500  0.727293  77.6507  37.522  6.029525
  10900.529  10900.520  0.500  0.725895  77.6181  37.5587  6.093852
  10902.726  10902.700  0.500  0.724043  77.588  37.6138  6.164366
  10904.976  10904.960  0.500  0.721712  77.5239  37.6704  6.233872
  10907.294  10907.290  0.500  0.719440  77.4638  37.7268  6.294280
  10909.711  10909.700  0.500  0.717432  77.42  37.7812  6.345831
  10912.197  10912.180  0.500  0.715996  77.3745  37.8133  6.371214
  10914.761  10914.740  0.500  0.714988  77.2939  37.812  6.374174
  10917.393  10917.380  0.500  0.715220  77.2518  37.7827  6.363031
  10920.115  10920.100  0.500  0.715590  77.2099  37.7482  6.346574
  10922.895  10922.890  0.500  0.716379  77.1594  37.6938  6.325167
  10925.760  10925.750  0.500  0.717053  77.109  37.6438  6.305447
  10928.719  10928.690  0.500  0.717736  77.0369  37.5829  6.279762
  10931.711  10931.710  0.500  0.718541  76.9576  37.514  6.243816
  10934.830  10934.810  0.500  0.718805  76.9079  37.4799  6.214840
  10937.997  10937.980  0.500  0.718579  76.8479  37.4591  6.188095
  10941.249  10941.230  0.500  0.717945  77.0685  37.5904  6.189409
  10944.565  10944.550  0.500  0.717478  77.0297  37.5891  6.190505
  10947.956  10947.950  0.500  0.716670  76.9351  37.5732  6.203096
  10951.443  10951.430  0.500  0.715714  76.8507  37.5679  6.235161
  10954.990  10954.980  0.500  0.714637  76.7945  37.5809  6.281919
  10958.643  10958.610  0.500  0.713565  76.6993  37.5746  6.321150
  10962.304  10962.310  0.500  0.712363  76.636  37.5887  6.344112
  10966.108  10966.090  0.500  0.711517  76.5608  37.5836  6.349726
  10969.946  10969.950  0.500  0.710714  76.4844  37.5763  6.351572
  10973.892  10973.880  0.500  0.709897  76.4086  37.5697  6.352250
  10977.893  10977.890  0.500  0.708913  76.2925  37.5496  6.360335
  10982.001  10981.980  0.500  0.707907  76.2332  37.5581  6.378160
  10986.145  10986.140  0.500  0.707228  76.1459  37.5406  6.389666
  10990.390  10990.380  0.500  0.706342  76.0485  37.5258  6.397526
  10994.697  10994.690  0.500  0.705627  75.9831  37.5204  6.406288
  10999.087  10999.080  0.500  0.705156  75.8746  37.4845  6.403150
[...]
  11042.047  11042.020  0.500  0.697600  74.9665  37.3167  6.452073
  11047.191  11047.170  0.500  0.696695  74.867  37.301  6.480252
  11052.418  11052.400  0.500  0.695600  74.7531  37.285  6.497389
  11057.720  11057.710  0.500  0.694781  74.6586  37.2684  6.494372
  11063.127  11063.090  0.500  0.693893  74.5487  37.2466  6.491747
  11068.588  11068.550  0.500  0.693092  74.4155  37.2098  6.491524
  11074.092  11074.080  0.500  0.691940  74.2876  37.1887  6.499111
  11079.708  11079.690  0.500  0.690932  74.175  37.1697  6.510133
  11085.388  11085.370  0.500  0.689896  74.0603  37.1507  6.519762
  11091.160  11091.140  0.500  0.688858  73.9457  37.1318  6.531723
  11096.981  11096.970  0.500  0.687660  73.7422  37.074  6.535919
  11102.904  11102.890  0.500  0.686835  73.6916  37.0791  6.546288
  11108.919  11108.880  0.500  0.685854  73.5677  37.0531  6.543321
  11114.979  11114.950  0.500  0.684865  73.4098  37.0101  6.540032
  11121.115  11121.090  0.500  0.683805  73.3251  37.0067  6.549666
  11127.334  11127.310  0.500  0.682913  73.1938  36.9734  6.562930
  11133.640  11133.600  0.500  0.681622  73.0566  36.9517  6.576618
  11139.996  11139.970  0.500  0.680357  72.9461  36.9425  6.593996
  11146.452  11146.420  0.500  0.679140  72.7744  36.9004  6.606722
  11152.964  11152.950  0.500  0.677784  72.6693  36.8972  6.626214
  11159.581  11159.550  0.500  0.676679  72.5334  36.8689  6.640870
  11166.255  11166.220  0.500  0.675611  72.4119  36.8465  6.655138
  11173.018  11172.970  0.500  0.674253  72.2917  36.8353  6.667924
  11179.838  11179.800  0.500  0.673119  72.1371  36.7982  6.668955
  11186.749  11186.710  0.500  0.671824  72.0117  36.7819  6.674216
  11193.728  11193.690  0.500  0.670675  71.8836  36.7586  6.682893
  11200.776  11200.750  0.500  0.669340  71.7379  36.7331  6.693803
  11207.909  11207.880  0.500  0.668139  71.5841  36.6984  6.705407
  11215.155  11215.090  0.500  0.666895  71.4627  36.6818  6.717902
  11222.438  11222.380  0.500  0.665480  71.304  36.6522  6.727283
  11229.775  11229.740  0.500  0.664242  71.1622  36.6245  6.738611
  11237.209  11237.180  0.500  0.662926  70.8533  36.5136  6.736435
  11244.719  11244.690  0.500  0.661583  70.9974  36.6371  6.779105
  11252.316  11252.280  0.500  0.660207  70.8057  36.5884  6.785333
  11259.990  11259.950  0.500  0.658865  70.6298  36.5466  6.794197
  11267.730  11267.690  0.500  0.657631  70.4815  36.5149  6.805323
  11275.530  11275.510  0.500  0.656243  70.2681  36.4548  6.813710
  11283.429  11283.410  0.500  0.654814  70.1397  36.4403  6.830744
  11291.412  11291.380  0.500  0.653461  69.9326  36.3819  6.840728
  11299.451  11299.430  0.500  0.653030  68.8009  35.8086  6.750629
  11307.557  11307.550  0.500  0.650694  69.6655  36.3434  6.869333
  11315.769  11315.750  0.500  0.649113  69.4194  36.2723  6.875297
  11324.044  11324.030  0.500  0.647828  69.3542  36.2848  6.894381
  11332.392  11332.380  0.500  0.646322  69.0908  36.2014  6.891608
  11340.831  11340.810  0.500  0.645471  68.7138  36.0346  6.873626
  11349.334  11349.310  0.500  0.643600  68.3389  35.9051  6.868073
  11357.899  11357.890  0.500  0.648300  58.8779  30.7893  5.908802
  11366.557  11366.550  0.500  0.640645  68.4141  36.051  6.939148
  11375.301  11375.290  0.500  0.639184  66.9329  35.322  6.819693
  11384.120  11384.100  0.500  0.637527  68.2455  36.0744  6.986449
  11393.005  11392.980  0.500  0.635219  66.1218  35.0326  6.804776
  11401.959  11401.940  0.500  0.634379  67.8559  35.9816  7.009258
  11411.008  11410.980  0.500  0.632943  67.6199  35.908  7.015767
  11415.560  11415.530  0.500  0.631726  67.092  35.6711  6.975928

File: Lu-L1-LutetiumOxide.xdi
# XDI/1.0 BlueSky/1.10.0 BMM/2023-1.0-py310-tiled
# Beamline.name: BMM (06BM) -- Beamline for Materials Measurement (NIST)
# Beamline.xray_source: NSLS-II three-pole wiggler
# Beamline.collimation: paraboloid mirror, 5 nm Rh on 30 nm Pt
# Beamline.focusing: not in use
# Beamline.harmonic_rejection: flat mirror, Pt stripe, pitch = 7.0 mrad relative to beam
# Beamline.software: Bluesky 1.10.0, Ophyd 1.7.0, DataBroker 2.0.0b13, Python 3.10.8, 2023-1.0-py310-tiled
# Detector.I0: 10 cm N2
# Detector.I1: 25 cm N2
# Detector.I2: 25 cm N2
# Element.symbol: Lu
# Element.edge: L1
# Element.reference: Lu
# Element.reference_material: Lu2O3
# Facility.name: NSLS-II
# Facility.energy: 3.0
# Facility.current: 400.1
# Facility.mode: top-off
# Facility.GUP: 301027
# Facility.SAF: 310583
# Facility.cycle: 2023-2
# Mono.name: Si(111)
# Mono.d_spacing: 3.13519
# Mono.encoder_resolution: 0.0000050 deg/ct
# Mono.angle_offset: 16.0754 deg
# Mono.scan_mode: pseudo channel cut
# Mono.scan_type: step
# Mono.direction: forward in energy
# Sample.name: Lu2O3
# Sample.prep: PEG pellet
# Sample.x: 109.138 mm
# Sample.y: 153.150 mm
# Sample.SDD_position: 205.000 mm
# Scan.experimenters: Bruce Ravel
# Scan.edge_energy: 10870.4
# Scan.start_time: 2023-05-28T18:25:21
# Scan.end_time: 2023-05-28T18:33:05
# Scan.transient_id: 78910
# Scan.uid: d0d62fac-d52a-40db-b25b-639b955d80d8
# Scan.plot_hint: ln(It/Ir)  --  ln($6/$7)
# Column.1: energy eV
# Column.2: requested_energy eV
# Column.3: measurement_time seconds
# Column.4: xmu
# Column.5: I0 nA
# Column.6: It nA
# Column.7: Ir nA
# ///////////
# sample courtesy Martin Stennett, University of Sheffield
# -----------
# energy  requested_energy  measurement_time  xmu  I0  It  Ir
  10670.415  10670.400  0.500  1.909557  84.5679  135.337  20.0496
  10700.485  10700.400  0.500  1.898432  84.062  134.745  20.1853
  10730.393  10730.400  0.500  1.888271  83.4795  134.052  20.2866
  10760.411  10760.400  0.500  1.879552  82.9375  133.381  20.3617
  10790.423  10790.400  0.500  1.867606  82.3921  132.73  20.5059
  10820.434  10820.400  0.500  1.856766  81.8812  132.117  20.6336
  10842.380  10842.400  0.500  1.853151  81.4929  131.649  20.6351
  10848.368  10848.400  0.500  1.851801  81.1047  131.055  20.5697
  10854.372  10854.400  0.500  1.851156  81.0153  130.948  20.5662
  10860.372  10860.400  0.500  1.851193  80.9397  130.873  20.5536
  10861.253  10861.300  0.500  1.851095  80.8134  130.665  20.5228
  10862.164  10862.200  0.500  1.851346  81.0044  130.989  20.5687
  10863.065  10863.100  0.500  1.851707  81.0681  131.098  20.5783
  10863.962  10864.000  0.500  1.852157  81.0474  131.074  20.5653
  10864.873  10864.900  0.500  1.852646  81.0249  131.038  20.5496
  10865.765  10865.800  0.500  1.853228  80.9926  130.993  20.5306
  10866.677  10866.700  0.500  1.854011  80.9692  130.971  20.511
  10867.569  10867.600  0.500  1.855159  80.8656  130.8  20.4608
  10868.476  10868.500  0.500  1.856480  80.6142  130.399  20.371
  10869.378  10869.400  0.500  1.858385  81.0448  131.098  20.4414
  10870.296  10870.300  0.500  1.860989  81.162  131.305  20.4204
  10871.194  10871.200  0.500  1.864766  81.1477  131.293  20.3416
  10872.101  10872.100  0.500  1.870180  81.1322  131.274  20.2289
  10872.994  10873.000  0.500  1.877451  81.0996  131.209  20.0723
  10873.902  10873.900  0.500  1.886087  81.0759  131.184  19.896
  10874.795  10874.800  0.500  1.894197  81.0516  131.148  19.7298
  10875.699  10875.700  0.500  1.901511  80.9524  131.007  19.565
  10876.587  10876.600  0.500  1.908655  80.8777  130.883  19.4072
  10877.490  10877.500  0.500  1.916337  80.8885  130.92  19.2642
  10878.384  10878.400  0.500  1.924608  80.938  130.984  19.1149
  10879.303  10879.300  0.500  1.933149  80.9334  130.989  18.953
  10880.202  10880.200  0.500  1.941740  80.9074  130.955  18.786
  10881.117  10881.100  0.500  1.950831  80.8944  130.935  18.6132
  10882.011  10882.000  0.500  1.960823  80.8755  130.92  18.426
  10882.916  10882.900  0.500  1.973332  80.8605  130.894  18.1933
  10883.805  10883.800  0.500  1.987836  80.8292  130.845  17.9247
  10884.715  10884.700  0.500  2.003136  80.8056  130.818  17.6488
  10885.599  10885.600  0.500  2.016410  80.7784  130.784  17.4116
  10886.505  10886.500  0.500  2.025666  80.7611  130.764  17.2486
  10887.389  10887.400  0.500  2.029332  80.7408  130.734  17.1814
  10888.300  10888.300  0.500  2.028433  80.7318  130.726  17.1959
  10889.206  10889.200  0.500  2.024485  80.7025  130.688  17.2589
  10890.117  10890.100  0.500  2.020010  80.6954  130.676  17.3347
  10891.002  10891.000  0.500  2.017025  80.6665  130.645  17.3824
  10891.918  10891.900  0.500  2.015678  80.6478  130.613  17.4016
  10892.799  10892.800  0.500  2.016296  80.6208  130.581  17.3865
  10893.711  10893.700  0.500  2.017498  80.5989  130.547  17.3612
  10894.591  10894.600  0.500  2.018721  80.5787  130.531  17.3378
  10895.395  10895.400  0.500  2.019083  80.557  130.487  17.3256
  10898.410  10898.410  0.500  2.014403  80.507  130.437  17.4004
  10901.622  10901.600  0.500  2.000301  80.4409  130.342  17.6345
  10904.971  10904.960  0.500  1.984929  80.3765  130.258  17.8961
  10908.477  10908.480  0.500  1.971667  80.3131  130.178  18.124
  10912.197  10912.180  0.500  1.963341  80.2367  130.086  18.2627
  10916.064  10916.050  0.500  1.962019  80.1385  129.944  18.2668
  10920.115  10920.100  0.500  1.964263  80.0968  129.91  18.221
  10924.309  10924.310  0.500  1.966901  80.0231  129.817  18.16
  10928.704  10928.690  0.500  1.969984  79.9405  129.717  18.0903
  10933.263  10933.250  0.500  1.975583  79.8493  129.599  17.9729
  10937.981  10937.980  0.500  1.981301  79.7738  129.506  17.8576
  10942.896  10942.880  0.500  1.985694  79.6824  129.388  17.763
  10947.967  10947.950  0.500  1.983545  79.5897  129.271  17.7853
  10953.203  10953.190  0.500  1.975432  79.4838  129.138  17.9116
  10958.638  10958.610  0.500  1.964525  79.3798  129.002  18.089
  10964.187  10964.190  0.500  1.959386  79.2795  128.88  18.165
  10969.973  10969.950  0.500  1.958397  79.1814  128.753  18.165
  10975.900  10975.880  0.500  1.957324  79.0688  128.59  18.1615
  10981.996  10981.980  0.500  1.953547  78.9563  128.458  18.2115
  10988.257  10988.250  0.500  1.949888  78.8638  128.355  18.2637
  10994.713  10994.690  0.500  1.947532  78.735  128.185  18.2824
  11001.319  11001.300  0.500  1.946896  78.618  128.033  18.2723
  11008.107  11008.090  0.500  1.948291  78.5045  127.895  18.2273
  11015.035  11015.050  0.500  1.950896  78.3062  127.613  18.1397
  11022.167  11022.170  0.500  1.948289  78.2606  127.592  18.1841
  11029.473  11029.470  0.500  1.944571  78.384  127.825  18.2852
  11036.957  11036.950  0.500  1.939543  78.2619  127.685  18.3572
  11044.616  11044.590  0.500  1.931590  78.1273  127.497  18.4766
  11052.413  11052.400  0.500  1.925511  77.9762  127.312  18.5622
  11060.412  11060.390  0.500  1.924815  77.7634  127.013  18.5316
  11068.578  11068.550  0.500  1.923808  77.6879  126.939  18.5394
  11076.883  11076.870  0.500  1.920921  77.4636  126.621  18.5465
  11085.378  11085.370  0.500  1.917386  77.3838  126.546  18.601
  11094.051  11094.050  0.500  1.913337  77.2221  126.332  18.645
  11102.888  11102.890  0.500  1.910710  77.0624  126.124  18.6633
  11111.905  11111.900  0.500  1.909703  76.8325  125.795  18.6333
  11121.115  11121.090  0.500  1.907546  76.7265  125.673  18.6555
  11130.464  11130.450  0.500  1.903184  76.5671  125.485  18.709
  11139.980  11139.970  0.500  1.898781  76.3926  125.249  18.7561
  11149.675  11149.670  0.500  1.893879  76.2186  125.029  18.8153
  11159.586  11159.550  0.500  1.889164  76.0503  124.807  18.8706
  11169.603  11169.590  0.500  1.884692  75.8672  124.565  18.9184
  11179.817  11179.800  0.500  1.882201  75.6759  124.312  18.9271
  11190.202  11190.190  0.500  1.879588  75.4907  124.055  18.9374
  11200.770  11200.750  0.500  1.875986  75.285  123.78  18.9635
  11211.506  11211.480  0.500  1.871929  75.0871  123.519  19.0004
  11222.411  11222.380  0.500  1.868236  74.8785  123.233  19.0266
  11233.474  11233.450  0.500  1.864038  74.6576  122.93  19.0597
  11244.708  11244.690  0.500  1.859416  74.5797  122.871  19.1388
  11256.152  11256.110  0.500  1.855690  74.3083  122.485  19.1499
  11267.707  11267.690  0.500  1.851647  74.0715  122.169  19.178
  11279.464  11279.450  0.500  1.847080  73.8451  121.84  19.2138
  11291.396  11291.380  0.500  1.842307  73.5889  121.485  19.2494
  11303.514  11303.480  0.500  1.837786  73.4275  121.29  19.3057
  11315.786  11315.750  0.500  1.833473  73.0971  120.812  19.3128
  11328.236  11328.190  0.500  1.829602  72.6974  120.218  19.2923
  11340.854  11340.810  0.500  1.825485  71.4151  118.165  19.041
  11353.629  11353.590  0.500  1.821925  71.7497  118.781  19.2085
  11366.568  11366.550  0.500  1.816696  72.2759  119.72  19.4619
  11379.700  11379.680  0.500  1.811419  72.2528  119.747  19.5693
  11392.999  11392.980  0.500  1.807021  71.2126  118.09  19.3836
  11406.459  11406.450  0.500  1.801862  71.7046  118.985  19.6316
  11420.116  11420.100  0.500  1.797715  71.4976  118.695  19.6651
  11433.914  11433.910  0.500  1.793804  71.2058  118.278  19.6728
  11447.935  11447.900  0.500  1.788570  70.9286  117.905  19.7136
  11462.081  11462.060  0.500  1.782767  70.6499  117.499  19.7601
  11476.412  11476.390  0.500  1.777837  69.9156  116.358  19.665
  11490.917  11490.890  0.500  1.773279  70.1835  116.859  19.8397
  11505.586  11505.560  0.500  1.768630  69.8861  116.449  19.8623
  11520.420  11520.400  0.500  1.764019  69.6071  116.04  19.884
  11535.432  11535.420  0.500  1.758773  69.3225  115.649  19.9213
  11550.623  11550.600  0.500  1.753131  68.9547  115.1  19.9389
  11565.994  11565.960  0.500  1.747914  66.9806  111.879  19.4822
  11581.511  11581.490  0.500  1.742936  67.2552  112.413  19.673
  11597.217  11597.190  0.500  1.738213  67.0121  112.079  19.7073
  11613.096  11613.060  0.500  1.733532  66.8117  111.809  19.7522
  11629.154  11629.110  0.500  1.728067  66.5428  111.432  19.7935
  11645.357  11645.320  0.500  1.722033  66.3383  111.157  19.864
  11661.742  11661.710  0.500  1.716337  65.9283  110.533  19.8654
  11678.311  11678.270  0.500  1.711248  65.7656  110.338  19.9315
  11695.028  11695.000  0.500  1.706045  65.6884  110.269  20.0229
  11711.932  11711.900  0.500  1.701125  65.4413  109.938  20.0612
  11723.304  11723.260  0.500  1.697549  65.2266  109.633  20.0772