Folder: webxdiviewer/xdidata/Data/Mn (part 3)

File: Mn-K-WolframiteA.xdi
# XDI/1.0 BlueSky/1.5.3
# Beamline.name: 6BM
# Beamline.xray_source: NSLS-II three-pole wiggler
# Beamline.collimation: paraboloid mirror, 5 nm Rh on 30 nm Pt
# Beamline.focusing: not in use
# Beamline.harmonic_rejection: flat mirror, Si stripe, pitch = 7.0 mrad relative to beam
# Detector.i0: 10 cm N2
# Detector.i1: 25 cm N2
# Detector.i2: 25 cm N2
# Element.symbol: Mn
# Element.edge: K
# Facility.name: NSLS-II
# Facility.energy: 3.0
# Facility.current: 400.5
# Facility.mode: top-off
# Facility.gup: 305081
# Facility.saf: 305123
# Mono.name: Si(111)
# Mono.d_spacing: 3.13532
# Mono.encoder_resolution: 0.0000050 deg/ct
# Mono.angle_offset: 16.0581 deg
# Mono.scan_mode: fixed exit
# Mono.scan_type: step
# Mono.direction: forward in energy
# Sample.name: (Fe,Mn)WO4
# Sample.prep: Powder in polyethylene glycol pellet
# Sample.x_position: -120.140 mm
# Sample.y_position: 112.312 mm
# Scan.experimenters: Neil Hyatt, Martin Stennett, Lucy Mottram
# Scan.edge_energy: 6539.0
# Scan.start_time: 2019-11-11T16:36:13
# Scan.end_time: 2019-11-12T02:01:41
# Scan.transient_id: 17903
# Scan.uid: b79577cf-ac8c-48fa-a540-17be9d04a3cc
# Scan.plot_hint: ln(I0/It)  --  ln($5/$6)
# Scan.sequence: merge of 3 scans
# Column.1: energy eV
# Column.2: requested_energy eV
# Column.3: measurement_time seconds
# Column.4: mutrans
# Column.5: i0
# Column.6: itrans
# Column.7: irefer
# /////
#  Cumberland, Amber â€“ ID
# -----
# energy   requested_energy   measurement_time   mutrans   i0   itrans   irefer
6339 6339 0.500000 4.286224 89.701 1.234002 0.282870
6379.02 6379 0.500000 4.219399 90.4037 1.329607 0.313500
6419.01 6419 0.500000 4.153477 91.1531 1.431976 0.346573
6459.01 6459 0.500000 4.089213 91.5119 1.533043 0.380708
6499 6499 0.500000 4.026037 92.4146 1.649114 0.420060
6514.99 6515 0.500000 4.002031 92.6547 1.693575 0.434947
6523.26 6523 0.500000 3.989090 92.7922 1.718331 0.442678
6529.09 6529.1 0.500000 3.979557 92.8792 1.736278 0.448317
6529.49 6529.5 0.500000 3.978891 92.8576 1.737015 0.448131
6529.89 6529.9 0.500000 3.978286 92.8594 1.738108 0.448232
6530.28 6530.3 0.500000 3.977463 92.8639 1.739623 0.448774
6530.69 6530.7 0.500000 3.976920 92.8574 1.740440 0.448926
6531.09 6531.1 0.500000 3.976293 92.8557 1.741503 0.448390
6531.49 6531.5 0.500000 3.975612 92.8651 1.742882 0.448591
6531.89 6531.9 0.500000 3.975010 92.9636 1.745759 0.449527
6532.3 6532.3 0.500000 3.974496 92.9656 1.746718 0.449559
6532.7 6532.7 0.500000 3.973826 92.9567 1.747693 0.449408
6533.1 6533.1 0.500000 3.973204 92.9474 1.748595 0.449557
6533.5 6533.5 0.500000 3.972404 92.9558 1.750164 0.449349
6533.9 6533.9 0.500000 3.972000 92.9345 1.750507 0.449137
6534.3 6534.3 0.500000 3.971491 92.9293 1.751266 0.448673
6534.7 6534.7 0.500000 3.970665 92.9314 1.752760 0.448211
6535.1 6535.1 0.500000 3.970334 92.9171 1.753066 0.447101
6535.5 6535.5 0.500000 3.969557 92.9143 1.754377 0.446241
6535.9 6535.9 0.500000 3.968800 92.8977 1.755384 0.444612
6536.3 6536.3 0.500000 3.968278 92.8803 1.755971 0.441480
6536.7 6536.7 0.500000 3.967642 92.9947 1.759260 0.436910
6537.1 6537.1 0.500000 3.967301 92.9888 1.759751 0.427668
6537.5 6537.5 0.500000 3.966638 92.9749 1.760654 0.413545
6537.9 6537.9 0.500000 3.966109 92.9784 1.761663 0.398377
6538.3 6538.3 0.500000 3.965160 93.0705 1.765072 0.386939
6538.7 6538.7 0.500000 3.964685 93.0592 1.765702 0.378375
6539.1 6539.1 0.500000 3.964062 93.0617 1.766843 0.372322
6539.5 6539.5 0.500000 3.963473 93.0536 1.767739 0.366956
6539.9 6539.9 0.500000 3.963255 93.0418 1.767899 0.362277
6540.3 6540.3 0.500000 3.962550 93.0423 1.769160 0.358358
6540.7 6540.7 0.500000 3.961544 93.034 1.770760 0.356178
6541.1 6541.1 0.500000 3.961316 93.0353 1.771207 0.354367
6541.5 6541.5 0.500000 3.960478 93.0355 1.772690 0.354130
6541.9 6541.9 0.500000 3.959986 93.019 1.773255 0.353604
6542.3 6542.3 0.500000 3.959431 93.0175 1.774204 0.352626
6542.7 6542.7 0.500000 3.959044 93.0147 1.774848 0.350517
6543.1 6543.1 0.500000 3.958331 93.0031 1.775883 0.347269
6543.5 6543.5 0.500000 3.958053 92.9988 1.776300 0.344562
6543.9 6543.9 0.500000 3.957348 92.9862 1.777311 0.342586
6544.3 6544.3 0.500000 3.957200 92.9836 1.777521 0.339845
6544.7 6544.7 0.500000 3.956851 93.0206 1.778849 0.337468
6545.1 6545.1 0.500000 3.956547 93.046 1.779863 0.334607
6545.5 6545.5 0.500000 3.956486 93.0497 1.780060 0.330601
6545.9 6545.9 0.500000 3.955982 93.0369 1.780730 0.327362
6546.3 6546.3 0.500000 3.955954 93.034 1.780707 0.323534
6546.7 6546.7 0.500000 3.955687 93.0325 1.781157 0.319319
6547.1 6547.1 0.500000 3.955188 93.0217 1.781827 0.315069
6547.5 6547.5 0.500000 3.955009 93.0078 1.781881 0.311166
6547.9 6547.9 0.500000 3.954554 93.0069 1.782675 0.306642
6548.3 6548.3 0.500000 3.954162 93.0021 1.783281 0.302988
6548.7 6548.7 0.500000 3.953738 92.9874 1.783749 0.298759
6549.1 6549.1 0.500000 3.953461 92.972 1.783960 0.294226
6549.5 6549.5 0.500000 3.953224 92.9706 1.784358 0.289912
6549.9 6549.9 0.500000 3.952772 93.0945 1.787545 0.286720
6550.3 6550.3 0.500000 3.952545 93.0809 1.787686 0.283486
6550.7 6550.7 0.500000 3.952018 93.0697 1.788409 0.279830
6551.1 6551.1 0.500000 3.951702 93.0568 1.788734 0.277105
6551.49 6551.5 0.500000 3.950705 93.1526 1.792358 0.274955
6551.9 6551.9 0.500000 3.950067 93.1301 1.793069 0.271998
6552.3 6552.3 0.500000 3.949285 93.1296 1.794467 0.270076
6552.7 6552.7 0.500000 3.948595 93.1201 1.795521 0.267169
6553.1 6553.1 0.500000 3.947659 93.1143 1.797084 0.265610
6553.5 6553.5 0.500000 3.946898 93.1159 1.798491 0.263964
6553.9 6553.9 0.500000 3.946275 93.1144 1.799571 0.262573
6554.3 6554.3 0.500000 3.945656 93.1111 1.800647 0.261896
6554.7 6554.7 0.500000 3.945003 93.1145 1.801869 0.261611
6555.1 6555.1 0.500000 3.944222 93.1116 1.803237 0.262422
6555.5 6555.5 0.500000 3.943460 93.1057 1.804483 0.263197
6555.9 6555.9 0.500000 3.942338 93.1078 1.806547 0.264475
6556.3 6556.3 0.500000 3.941658 93.1155 1.807933 0.266268
6556.7 6556.7 0.500000 3.941065 93.0892 1.808501 0.268085
6557.1 6557.1 0.500000 3.940080 93.1057 1.810576 0.270439
6557.5 6557.5 0.500000 3.939550 93.093 1.811309 0.271591
6557.9 6557.9 0.500000 3.938972 93.2121 1.814673 0.274115
6558.3 6558.3 0.500000 3.938357 93.2131 1.815811 0.275446
6558.7 6558.7 0.500000 3.937303 93.2067 1.817579 0.276662
6559.1 6559.1 0.500000 3.936796 93.199 1.818365 0.277805
6559.5 6559.5 0.500000 3.936051 93.2065 1.819872 0.278636
6559.9 6559.9 0.500000 3.935297 93.1786 1.820684 0.279218
6560.3 6560.3 0.500000 3.935001 93.0904 1.819518 0.279043
6560.7 6560.7 0.500000 3.934125 93.0024 1.819390 0.279233
6561.1 6561.1 0.500000 3.933641 93.0206 1.820631 0.279181
6561.49 6561.5 0.500000 3.932751 93.163 1.825028 0.279970
6561.9 6561.9 0.500000 3.932377 93.1639 1.825728 0.279700
6562.3 6562.3 0.500000 3.931495 93.1765 1.827596 0.279634
6562.7 6562.7 0.500000 3.930894 93.2901 1.830918 0.279631
6563.1 6563.1 0.500000 3.930209 93.281 1.831987 0.279603
6563.5 6563.5 0.500000 3.929682 93.2855 1.833048 0.279538
6563.9 6563.9 0.500000 3.929206 93.2744 1.833718 0.279225
6564.3 6564.3 0.500000 3.928592 93.372 1.836735 0.279867
6564.69 6564.7 0.500000 3.928124 93.3742 1.837665 0.279629
6565.1 6565.1 0.500000 3.927408 93.3666 1.838808 0.279383
6565.5 6565.5 0.500000 3.926857 93.3639 1.839780 0.279616
6565.91 6565.9 0.500000 3.925959 93.3693 1.841532 0.279963
[...]
6567.1 6567.1 0.500000 3.924071 93.3763 1.845154 0.281204
6567.5 6567.5 0.500000 3.923486 93.3912 1.846533 0.281088
6567.9 6567.9 0.500000 3.923171 93.3801 1.846900 0.281342
6568.3 6568.3 0.500000 3.922332 93.3998 1.848842 0.281493
6568.7 6568.7 0.500000 3.921293 93.4014 1.850783 0.282387
6570.09 6570.08 0.710000 3.919536 132.662 2.633380 0.402359
6574.59 6574.58 0.760000 3.912669 142.028 2.838722 0.432997
6579.4 6579.39 0.810000 3.905377 151.532 3.050820 0.460519
6584.51 6584.51 0.860000 3.897872 161.021 3.266282 0.489043
6589.94 6589.93 0.910000 3.889868 170.4 3.484340 0.531212
6595.66 6595.65 0.960000 3.881377 179.828 3.708474 0.575037
6601.69 6601.68 1.010000 3.872349 188.854 3.929946 0.616288
6608.02 6608.01 1.060000 3.862942 198.685 4.173597 0.652126
6614.66 6614.65 1.110000 3.853271 208.112 4.414132 0.686352
6621.61 6621.6 1.160000 3.842774 217.518 4.662292 0.726533
6628.84 6628.84 1.210000 3.831954 227.011 4.918682 0.774378
6636.41 6636.4 1.260000 3.820569 236.717 5.187716 0.821292
6644.27 6644.26 1.310000 3.808838 246.461 5.464990 0.869408
6652.43 6652.42 1.360000 3.796749 255.974 5.745007 0.924723
6660.9 6660.89 1.410000 3.784696 265.485 6.030695 0.977854
6669.67 6669.66 1.460000 3.771583 275.04 6.330257 1.027471
6678.74 6678.74 1.510000 3.758519 284.579 6.635890 1.078213
6688.12 6688.12 1.560000 3.744964 294.072 6.950835 1.138994
6697.8 6697.8 1.610000 3.730977 303.54 7.275734 1.206489
6707.79 6707.79 1.660000 3.716650 312.96 7.609783 1.276011
6718.09 6718.09 1.710000 3.701677 322.376 7.956979 1.343160
6728.7 6728.69 1.760000 3.686707 332.142 8.321647 1.411757
6739.6 6739.6 1.810000 3.670834 341.407 8.690576 1.482575
6750.81 6750.81 1.860000 3.654920 350.578 9.067161 1.561143
6762.32 6762.32 1.910000 3.638186 359.613 9.457836 1.644853
6774.14 6774.14 1.960000 3.621485 368.699 9.860058 1.730929
6786.27 6786.27 2.010000 3.604660 378.336 10.2895 1.825582
6798.7 6798.7 2.060000 3.587487 387.758 10.7284 1.920353
6811.42 6811.43 2.110000 3.568947 372.464 10.498 1.892908
6824.47 6824.47 2.160000 3.551984 402.889 11.5499 2.098333
6837.82 6837.82 2.210000 3.533990 412.597 12.0429 2.208883
6851.47 6851.47 2.260000 3.515645 420.978 12.5151 2.318926
6865.43 6865.42 2.310000 3.498575 429.202 12.9792 2.430092
6879.68 6879.68 2.360000 3.479063 438.655 13.5264 2.558356
6894.24 6894.24 2.410000 3.459712 449.006 14.1162 2.694817
6909.11 6909.11 2.460000 3.440156 457.625 14.6712 2.826187
6924.28 6924.28 2.510000 3.420220 465.743 15.2322 2.962622
6939.76 6939.76 2.560000 3.400784 474.176 15.8123 3.106576
6955.54 6955.54 2.610000 3.380260 482.949 16.4389 3.261884
6971.63 6971.63 2.660000 3.359854 491.604 17.0784 3.425700
6988.03 6988.02 2.710000 3.339861 499.695 17.7102 3.589619
7004.73 7004.72 2.760000 3.318759 507.415 18.3672 3.761695
7021.73 7021.72 2.810000 3.297340 515.19 19.0523 3.940354
7039.03 7039.03 2.860000 3.276667 522.985 19.7446 4.126231
7056.64 7056.64 2.910000 3.255410 531.277 20.4882 4.325936
7074.56 7074.56 2.960000 3.234069 535.186 21.0841 4.499501
7092.78 7092.78 3.010000 3.211916 547.212 22.0406 4.753672
7111.31 7111.3 3.060000 3.190654 553.706 22.7814 4.964328
7130.14 7130.13 3.110000 3.218297 533.546 21.3535 4.683478
7149.27 7149.27 3.160000 3.180490 549.127 22.8239 5.063043
7168.71 7168.71 3.210000 3.155236 558.548 23.8092 5.338473
7188.45 7188.45 3.260000 3.137744 563.576 24.4476 5.541443
7208.5 7208.5 3.310000 3.112796 571.88 25.4345 5.827285
7228.86 7228.86 3.360000 3.088215 578.639 26.3755 6.110538
7249.52 7249.52 3.410000 3.064934 584.464 27.2685 6.387795
7270.49 7270.48 3.460000 3.041707 592.95 28.3146 6.704233
7281.08 7281.08 3.490000 3.029633 586.61 28.3521 6.750503

File: Mn-Rhodocrosite.xdi
# XDI/1.0 BlueSky/1.10.0 BMM/2023-1.0-py310-tiled
# Beamline.name: BMM (06BM) -- Beamline for Materials Measurement (NIST)
# Beamline.xray_source: NSLS-II three-pole wiggler
# Beamline.collimation: paraboloid mirror, 5 nm Rh on 30 nm Pt
# Beamline.focusing: not in use
# Beamline.harmonic_rejection: flat mirror, Si stripe, pitch = 7.0 mrad relative to beam
# Beamline.software: Bluesky 1.10.0, Ophyd 1.7.0, DataBroker 2.0.0b13, Python 3.10.8, 2023-1.0-py310-tiled
# Detector.I0: 10 cm N2
# Detector.I1: 25 cm N2
# Detector.I2: 25 cm N2
# Element.symbol: Mn
# Element.edge: K
# Element.reference: Mn
# Element.reference_material: Mn metal powder
# Facility.name: NSLS-II
# Facility.energy: 3.0
# Facility.current: 400.7
# Facility.mode: top-off
# Facility.GUP: 123456
# Facility.SAF: 301027
# Facility.cycle: 2023-2
# Mono.name: Si(111)
# Mono.d_spacing: 3.13519
# Mono.encoder_resolution: 0.0000050 deg/ct
# Mono.angle_offset: 16.0754 deg
# Mono.scan_mode: pseudo channel cut
# Mono.scan_type: step
# Mono.direction: forward in energy
# Sample.name: MnCO3
# Sample.prep: PEG pellet
# Sample.x: 123.848 mm
# Sample.y: 114.690 mm
# Sample.SDD_position: 205.000 mm
# Scan.experimenters: Bruce Ravel
# Scan.edge_energy: 6539.0
# Scan.start_time: 2023-05-08T11:37:26
# Scan.end_time: 2023-05-08T11:45:39
# Scan.transient_id: 75370
# Scan.uid: ea835894-ed44-4bc1-af4c-7e9bb2443a09
# Scan.plot_hint: ln(I0/It)  --  ln($5/$6)
# Column.1: energy eV
# Column.2: requested_energy eV
# Column.3: measurement_time seconds
# Column.4: xmu
# Column.5: I0 nA
# Column.6: It nA
# Column.7: Ir nA
# ///////////
# Welcome to BMM
# -----------
# energy  requested_energy  measurement_time  xmu  I0  It  Ir
  6338.999  6339.000  0.500  2.566016  150.637  11.5751  0.591078
  6369.002  6369.000  0.500  2.521241  151.36  12.1632  0.646176
  6399.012  6399.000  0.500  2.477148  151.985  12.7641  0.705022
  6429.010  6429.000  0.500  2.433968  152.534  13.3755  0.767598
  6459.010  6459.000  0.500  2.391659  152.592  13.9588  0.830652
  6488.999  6489.000  0.500  2.349435  153.217  14.6204  0.898948
  6510.984  6511.000  0.500  2.322384  153.761  15.0747  0.939759
  6516.989  6517.000  0.500  2.315197  153.842  15.1914  0.946248
  6522.988  6523.000  0.500  2.309364  153.936  15.2897  0.945330
  6528.994  6529.000  0.500  2.304897  154.005  15.3649  0.927401
  6529.884  6529.900  0.500  2.304978  153.991  15.3622  0.920384
  6530.784  6530.800  0.500  2.304650  153.986  15.3668  0.912969
  6531.691  6531.700  0.500  2.304036  153.977  15.3754  0.903527
  6532.590  6532.600  0.500  2.303928  153.994  15.3787  0.891344
  6533.486  6533.500  0.500  2.304987  153.997  15.3627  0.872522
  6534.391  6534.400  0.500  2.305297  153.992  15.3575  0.848474
  6535.292  6535.300  0.500  2.306071  153.986  15.345  0.810794
  6536.194  6536.200  0.500  2.307866  153.99  15.3179  0.748106
  6537.093  6537.100  0.500  2.310900  154.004  15.2728  0.616747
  6537.998  6538.000  0.500  2.317020  154.016  15.1809  0.352647
  6538.899  6538.900  0.500  2.334887  154.002  14.9107  0.160902
  6539.798  6539.800  0.500  2.349227  153.999  14.6981  0.104607
  6540.692  6540.700  0.500  2.342543  153.99  14.7959  0.079014
  6541.596  6541.600  0.500  2.342556  154  14.7966  0.068779
  6542.502  6542.500  0.500  2.359015  154.002  14.5552  0.066180
  6543.397  6543.400  0.500  2.399332  154.003  13.9802  0.056314
  6544.298  6544.300  0.500  2.510179  154.001  12.5131  0.043248
  6545.202  6545.200  0.500  2.680484  154.009  10.5543  0.033298
  6546.096  6546.100  0.500  2.855540  154.012  8.859522  0.024959
  6546.994  6547.000  0.500  3.123892  154.021  6.774694  0.016083
  6547.901  6547.900  0.500  3.497375  154.03  4.663530  0.009145
  6548.798  6548.800  0.500  3.910751  154.032  3.084567  0.005024
  6549.701  6549.700  0.500  4.203602  154.047  2.301712  0.002977
  6550.601  6550.600  0.500  4.248030  154.055  2.201812  0.002342
  6551.501  6551.500  0.500  4.210695  154.072  2.285815  0.002003
  6552.402  6552.400  0.500  4.106473  154.087  2.537154  0.001814
  6553.300  6553.300  0.500  3.943305  154.095  2.986976  0.001760
  6554.202  6554.200  0.500  3.747338  154.115  3.634091  0.001892
  6555.100  6555.100  0.500  3.598064  154.147  4.220025  0.002146
  6556.001  6556.000  0.500  3.535134  154.162  4.494563  0.002068
  6556.903  6556.900  0.500  3.511631  154.165  4.601544  0.002424
  6557.801  6557.800  0.500  3.530279  154.183  4.517070  0.002482
  6558.699  6558.700  0.500  3.599496  154.207  4.215633  0.002477
  6559.606  6559.600  0.500  3.683628  154.23  3.876049  0.002539
  6560.504  6560.500  0.500  3.737956  154.23  3.671097  0.002512
  6561.399  6561.400  0.500  3.750310  154.158  3.624319  0.002400
  6562.299  6562.300  0.500  3.731792  154.47  3.699527  0.002395
  6563.205  6563.200  0.500  3.683730  154.795  3.889850  0.002413
  6564.000  6564.000  0.500  3.631563  154.834  4.099199  0.002539
  6567.035  6567.010  0.500  3.378579  154.858  5.280017  0.003103
  6570.191  6570.200  0.500  3.184301  154.863  6.412447  0.003687
  6573.557  6573.560  0.500  3.124123  154.887  6.811247  0.003842
  6577.082  6577.080  0.500  3.161192  154.937  6.565493  0.003806
  6580.786  6580.780  0.500  3.262369  154.968  5.934914  0.003191
  6584.657  6584.650  0.500  3.399159  154.984  5.176665  0.002595
  6588.704  6588.700  0.500  3.435415  154.992  4.992607  0.002697
  6592.920  6592.910  0.500  3.492164  155.028  4.718254  0.002804
  6597.298  6597.290  0.500  3.501429  155.056  4.675587  0.002988
  6601.859  6601.850  0.500  3.417323  155.081  5.086694  0.003416
  6606.587  6606.580  0.500  3.399307  155.107  5.180000  0.003388
  6611.489  6611.480  0.500  3.388817  155.162  5.236491  0.003161
  6616.556  6616.550  0.500  3.341939  155.165  5.487927  0.003182
  6621.800  6621.790  0.500  3.283713  155.15  5.816374  0.003318
  6627.218  6627.210  0.500  3.280525  155.179  5.836065  0.003431
  6632.801  6632.790  0.500  3.284960  155.209  5.811352  0.003653
  6638.557  6638.550  0.500  3.284667  155.232  5.813910  0.003561
  6644.488  6644.480  0.500  3.287897  155.246  5.795670  0.003450
  6650.589  6650.580  0.500  3.285849  155.262  5.808154  0.003818
  6656.860  6656.850  0.500  3.284162  155.253  5.817652  0.003995
  6663.298  6663.290  0.500  3.276346  155.248  5.863098  0.004198
  6669.908  6669.900  0.500  3.277218  155.245  5.857864  0.003945
  6676.702  6676.690  0.500  3.280909  155.218  5.835265  0.003710
  6683.657  6683.650  0.500  3.247046  155.252  6.037585  0.003814
  6690.776  6690.770  0.500  3.204057  155.237  6.302171  0.004141
  6698.079  6698.070  0.500  3.179711  155.205  6.456177  0.004407
  6705.559  6705.550  0.500  3.182449  155.14  6.435837  0.004729
  6713.200  6713.190  0.500  3.168512  155.111  6.524912  0.004873
  6721.003  6721.000  0.500  3.157583  155.07  6.594864  0.004893
  6728.995  6728.990  0.500  3.140303  155.046  6.708810  0.004833
  6737.165  6737.150  0.500  3.122168  154.964  6.827960  0.005029
  6745.485  6745.470  0.500  3.117012  154.871  6.859151  0.005098
  6753.978  6753.970  0.500  3.104850  154.803  6.940023  0.005305
  6762.666  6762.650  0.500  3.097468  154.746  6.988836  0.005386
  6771.494  6771.490  0.500  3.080103  154.648  7.106764  0.005445
  6780.514  6780.500  0.500  3.053805  154.618  7.294736  0.005902
  6789.701  6789.690  0.500  3.030417  154.599  7.466442  0.006398
  6799.065  6799.050  0.500  3.014606  154.046  7.558292  0.006547
  6808.584  6808.570  0.500  2.997578  154.141  7.692843  0.006763
  6818.287  6818.270  0.500  2.982684  153.954  7.798825  0.006733
  6828.167  6828.150  0.500  2.971913  153.618  7.866028  0.006877
  6838.207  6838.190  0.500  2.958948  153.343  7.954412  0.007068
  6848.409  6848.400  0.500  2.938093  153.154  8.112047  0.007412
  6858.802  6858.790  0.500  2.920527  153.107  8.253296  0.007873
  6869.362  6869.350  0.500  2.904731  153.085  8.383476  0.008273
  6880.096  6880.080  0.500  2.889233  153.011  8.510320  0.008527
  6890.993  6890.980  0.500  2.871220  152.857  8.656247  0.008785
  6902.064  6902.050  0.500  2.851795  152.667  8.815100  0.009002
  6913.301  6913.290  0.500  2.833902  152.335  8.954704  0.009350
  6924.722  6924.710  0.500  2.815097  152.033  9.106603  0.009587
  6936.287  6936.290  0.500  2.797485  151.75  9.251190  0.010120
  6948.061  6948.050  0.500  2.781222  151.523  9.388779  0.010443
  6959.997  6959.980  0.500  2.764680  151.806  9.563180  0.010898
  6972.094  6972.080  0.500  2.746443  151.632  9.728066  0.011443
  6984.353  6984.350  0.500  2.728976  151.341  9.880447  0.011858
  6996.798  6996.790  0.500  2.711817  151.046  10.0319  0.012274
  7009.410  7009.410  0.500  2.693604  150.691  10.1922  0.012683
  7022.195  7022.190  0.500  2.674863  150.375  10.3633  0.013122
  7035.159  7035.150  0.500  2.656289  150.02  10.5326  0.013780
  7048.284  7048.280  0.500  2.637989  149.663  10.7017  0.014198
  7061.592  7061.580  0.500  2.619643  149.335  10.8759  0.014705
  7075.066  7075.050  0.500  2.601001  147.856  10.9708  0.015395
  7088.720  7088.700  0.500  2.583062  148.473  11.216  0.016094
  7102.525  7102.510  0.500  2.564862  148.049  11.3894  0.016705
  7116.515  7116.500  0.500  2.546347  147.335  11.5463  0.017228
  7130.645  7130.660  0.500  2.528211  146.321  11.6766  0.017644
  7144.995  7144.990  0.500  2.509674  145.861  11.8577  0.018327
  7159.476  7159.490  0.500  2.490902  145.441  12.0476  0.019020
  7174.187  7174.160  0.500  2.472608  144.827  12.2183  0.019781
  7188.987  7189.000  0.500  2.453650  144.308  12.4075  0.020717
  7204.032  7204.020  0.500  2.434793  143.642  12.5854  0.021481
  7219.192  7219.200  0.500  2.416118  142.982  12.7637  0.022250
  7234.543  7234.560  0.500  2.397050  142.49  12.9646  0.023162
  7250.069  7250.090  0.500  2.378873  141.82  13.1403  0.024018
  7265.772  7265.790  0.500  2.359596  140.232  13.2461  0.024814
  7281.666  7281.660  0.500  2.341935  141.363  13.5908  0.026074
  7297.711  7297.710  0.500  2.323408  140.726  13.7826  0.027268
  7313.907  7313.920  0.500  2.304929  140.27  13.9941  0.028384
  7330.308  7330.310  0.500  2.285861  139.66  14.2015  0.029572
  7346.846  7346.870  0.500  2.267308  139.038  14.4031  0.030555
  7363.579  7363.600  0.500  2.248111  138.438  14.6188  0.031778
  7380.490  7380.500  0.500  2.229158  137.816  14.8317  0.033249
  7391.846  7391.860  0.500  2.216480  137.397  14.9752  0.034109