Folder: webxdiviewer/xdidata/Data/Mn

Note: xdidata/README.md
# bmm-standards
A pretty webpage for BMM's collection of common XAFS materials

[BMM's common materials collection](./BMM-standards.html)

Plotting of the data will happen soon.

Periodic table adapted from [some guy named Daniel](https://codepen.io/gooseofmusic/pen/PjKdNQ)

[This](https://www.coderstool.com/scss-to-css) is a helpful tool for
dealing with Sassy CSS.

File: Mn-K-Johannsonite.xdi
# XDI/1.0 BlueSky/1.5.3
# Beamline.name: 6BM
# Beamline.xray_source: NSLS-II three-pole wiggler
# Beamline.collimation: paraboloid mirror, 5 nm Rh on 30 nm Pt
# Beamline.focusing: not in use
# Beamline.harmonic_rejection: flat mirror, Si stripe, pitch = 7.0 mrad relative to beam
# Detector.i0: 10 cm N2
# Detector.i1: 25 cm N2
# Detector.i2: 25 cm N2
# Element.symbol: Mn
# Element.edge: K
# Facility.name: NSLS-II
# Facility.energy: 3.0
# Facility.current: 399.4
# Facility.mode: top-off
# Facility.gup: 305081
# Facility.saf: 305123
# Mono.name: Si(111)
# Mono.d_spacing: 3.13532
# Mono.encoder_resolution: 0.0000050 deg/ct
# Mono.angle_offset: 16.0581 deg
# Mono.scan_mode: fixed exit
# Mono.scan_type: step
# Mono.direction: forward in energy
# Sample.name: CaMnSi2O6 - LT
# Sample.prep: Powder in polyethylene glycol pellet
# Sample.x_position: -120.140 mm
# Sample.y_position: 112.312 mm
# Scan.experimenters: Neil Hyatt, Martin Stennett, Lucy Mottram
# Scan.edge_energy: 6539.0
# Scan.start_time: 2019-11-11T13:22:12
# Scan.end_time: 2019-11-11T22:09:21
# Scan.transient_id: 17893
# Scan.uid: a6dae641-e6e0-43e5-a9c2-374a0dabe858
# Scan.plot_hint: ln(I0/It)  --  ln($5/$6)
# Scan.sequence: merge of 3 scans
# Column.1: energy eV
# Column.2: requested_energy eV
# Column.3: measurement_time seconds
# Column.4: mutrans
# Column.5: i0
# Column.6: itrans
# Column.7: irefer
# /////
#  B â€“ Iron Cap Mine; Graham Country, Arizona
# -----
# energy   requested_energy   measurement_time   mutrans   i0   itrans   irefer
6339 6339 0.500000 3.664017 44.9079 1.150974 0.267033
6379.02 6379 0.500000 3.587255 45.3853 1.256012 0.299810
6419.01 6419 0.500000 3.512454 45.8801 1.368311 0.334534
6459.01 6459 0.500000 3.438862 46.0665 1.478789 0.371557
6498.96 6499 0.500000 3.367727 46.5285 1.603644 0.412525
6514.99 6515 0.500000 3.340200 46.6592 1.653130 0.429372
6522.99 6523 0.500000 3.327094 46.7283 1.677305 0.436927
6529.09 6529.1 0.500000 3.318333 46.7663 1.693563 0.441276
6529.48 6529.5 0.500000 3.317883 46.7552 1.693930 0.441734
6529.89 6529.9 0.500000 3.317183 46.7476 1.694827 0.441631
6530.28 6530.3 0.500000 3.316579 46.7478 1.695862 0.441760
6530.69 6530.7 0.500000 3.316262 46.7432 1.696237 0.441761
6531.09 6531.1 0.500000 3.315749 46.7441 1.697130 0.441677
6531.49 6531.5 0.500000 3.315103 46.735 1.697912 0.441879
6531.89 6531.9 0.500000 3.314701 46.7339 1.698523 0.442079
6532.3 6532.3 0.500000 3.314214 46.7874 1.701315 0.442404
6532.7 6532.7 0.500000 3.313617 46.7948 1.702598 0.442311
6533.1 6533.1 0.500000 3.313290 46.849 1.705119 0.442813
6533.5 6533.5 0.500000 3.312958 46.8511 1.705777 0.442794
6533.9 6533.9 0.500000 3.312508 46.8489 1.706421 0.441865
6534.3 6534.3 0.500000 3.312401 46.8483 1.706627 0.441445
6534.7 6534.7 0.500000 3.311993 46.8451 1.707180 0.440945
6535.1 6535.1 0.500000 3.311821 46.8429 1.707410 0.440104
6535.5 6535.5 0.500000 3.311277 46.8332 1.707985 0.438298
6535.9 6535.9 0.500000 3.311367 46.8354 1.707912 0.436507
6536.3 6536.3 0.500000 3.311375 46.8412 1.708111 0.433590
6536.7 6536.7 0.500000 3.311569 46.8331 1.707504 0.427730
6537.1 6537.1 0.500000 3.312100 46.8285 1.706421 0.418124
6537.5 6537.5 0.500000 3.313045 46.8295 1.704843 0.403729
6537.9 6537.9 0.500000 3.315135 46.8234 1.701060 0.388093
6538.3 6538.3 0.500000 3.318606 46.8249 1.695225 0.374752
6538.7 6538.7 0.500000 3.321538 46.8237 1.690209 0.365507
6539.1 6539.1 0.500000 3.322640 46.8251 1.688400 0.358663
6539.5 6539.5 0.500000 3.322756 46.8758 1.690037 0.353735
6539.9 6539.9 0.500000 3.321217 46.8733 1.692546 0.350054
6540.3 6540.3 0.500000 3.318922 46.8804 1.696692 0.346726
6540.7 6540.7 0.500000 3.317728 46.8734 1.698460 0.344810
6541.1 6541.1 0.500000 3.317834 46.8672 1.698077 0.343162
6541.5 6541.5 0.500000 3.319746 46.8715 1.694957 0.341899
6541.9 6541.9 0.500000 3.322544 46.8648 1.689957 0.340383
6542.3 6542.3 0.500000 3.326745 46.8641 1.682868 0.337624
6542.7 6542.7 0.500000 3.333794 46.8656 1.671194 0.333264
6543.1 6543.1 0.500000 3.344308 46.8601 1.653374 0.326879
6543.5 6543.5 0.500000 3.359879 46.8482 1.627394 0.318811
6543.9 6543.9 0.500000 3.382699 46.8558 1.591304 0.309599
6544.3 6544.3 0.500000 3.415178 46.8482 1.540026 0.297060
6544.7 6544.7 0.500000 3.458952 46.8399 1.473583 0.281895
6545.1 6545.1 0.500000 3.511910 46.8843 1.399016 0.265029
6545.5 6545.5 0.500000 3.570232 46.8706 1.319482 0.247806
6545.9 6545.9 0.500000 3.626892 46.9164 1.248131 0.231833
6546.31 6546.3 0.500000 3.672766 46.906 1.191254 0.218317
6546.7 6546.7 0.500000 3.705672 46.8964 1.152837 0.208237
6547.1 6547.1 0.500000 3.729420 46.888 1.125680 0.200913
6547.5 6547.5 0.500000 3.747581 46.8742 1.105015 0.194716
6547.9 6547.9 0.500000 3.765758 46.8651 1.084806 0.188245
6548.3 6548.3 0.500000 3.791111 46.861 1.057620 0.181000
6548.7 6548.7 0.500000 3.827162 46.8579 1.020109 0.171961
6549.1 6549.1 0.500000 3.871244 46.8472 0.975863 0.162314
6549.51 6549.5 0.500000 3.920641 46.8443 0.928690 0.152684
6549.9 6549.9 0.500000 3.970831 46.8384 0.883483 0.143216
6550.3 6550.3 0.500000 4.017252 46.8404 0.843298 0.134887
6550.7 6550.7 0.500000 4.051677 46.8392 0.814721 0.128804
6551.1 6551.1 0.500000 4.065277 46.832 0.803556 0.125706
6551.49 6551.5 0.500000 4.052098 46.8289 0.814021 0.126131
6551.9 6551.9 0.500000 4.018521 46.8237 0.841989 0.128616
6552.3 6552.3 0.500000 3.979725 46.8189 0.875284 0.132320
6552.7 6552.7 0.500000 3.949641 46.8469 0.902386 0.135444
6553.1 6553.1 0.500000 3.928857 46.8467 0.921327 0.137397
6553.5 6553.5 0.500000 3.917070 46.8501 0.932252 0.138220
6553.9 6553.9 0.500000 3.918383 46.8506 0.931070 0.136632
6554.3 6554.3 0.500000 3.931942 46.8461 0.918414 0.134967
6554.7 6554.7 0.500000 3.954570 46.8487 0.897911 0.131747
6555.1 6555.1 0.500000 3.976625 46.8525 0.878494 0.128831
6555.5 6555.5 0.500000 3.987257 46.8517 0.869111 0.127487
6555.9 6555.9 0.500000 3.981889 46.8475 0.873742 0.128882
6556.3 6556.3 0.500000 3.960594 46.8474 0.892531 0.132665
6556.7 6556.7 0.500000 3.929695 46.8442 0.920530 0.137709
6557.1 6557.1 0.500000 3.893402 46.8378 0.954338 0.143750
6557.5 6557.5 0.500000 3.859588 46.8365 0.987165 0.149507
6557.9 6557.9 0.500000 3.828407 46.8376 1.018353 0.155167
6558.3 6558.3 0.500000 3.800019 46.8582 1.048051 0.160261
6558.7 6558.7 0.500000 3.773731 46.8759 1.076608 0.165301
6559.1 6559.1 0.500000 3.750874 46.9301 1.102685 0.169750
6559.5 6559.5 0.500000 3.732598 46.9255 1.122788 0.173557
6559.9 6559.9 0.500000 3.719360 46.9102 1.137526 0.176044
6560.3 6560.3 0.500000 3.708622 46.8737 1.148955 0.177629
6560.7 6560.7 0.500000 3.700955 46.8226 1.156538 0.179028
6561.1 6561.1 0.500000 3.695352 46.836 1.163325 0.179916
6561.5 6561.5 0.500000 3.691905 46.903 1.169024 0.180386
6561.9 6561.9 0.500000 3.689608 46.9186 1.172111 0.181167
6562.3 6562.3 0.500000 3.688011 46.9179 1.173964 0.180951
6562.7 6562.7 0.500000 3.687210 46.9163 1.174866 0.180908
6563.1 6563.1 0.500000 3.687208 46.9165 1.174878 0.180743
6563.5 6563.5 0.500000 3.688382 46.9192 1.173561 0.180369
6563.9 6563.9 0.500000 3.690586 46.9161 1.170912 0.179549
6564.3 6564.3 0.500000 3.692299 46.9172 1.168960 0.179979
6564.7 6564.7 0.500000 3.694944 46.9201 1.165911 0.178750
6565.1 6565.1 0.500000 3.697031 46.9216 1.163513 0.178858
6565.5 6565.5 0.500000 3.699687 46.9908 1.162155 0.178569
6565.9 6565.9 0.500000 3.702302 46.9892 1.159033 0.177650
[...]
6567.5 6567.5 0.500000 3.715413 46.9851 1.143836 0.175675
6567.9 6567.9 0.500000 3.718535 46.9764 1.140129 0.174726
6568.3 6568.3 0.500000 3.720602 46.9759 1.137726 0.174895
6568.71 6568.7 0.500000 3.721799 46.9755 1.136367 0.174895
6570.09 6570.08 0.710000 3.712675 66.7093 1.628507 0.250641
6574.59 6574.58 0.760000 3.616704 71.4341 1.919409 0.294964
6579.4 6579.39 0.810000 3.598067 76.2792 2.088188 0.317362
6584.52 6584.51 0.860000 3.638311 81.1632 2.134279 0.321849
6589.94 6589.93 0.910000 3.698572 85.9203 2.127310 0.327331
6595.66 6595.65 0.960000 3.713007 90.7222 2.214003 0.346408
6601.69 6601.68 1.010000 3.688244 95.3083 2.384240 0.377244
6608.02 6608.01 1.060000 3.669153 100.303 2.557533 0.403218
6614.66 6614.65 1.110000 3.635954 105.095 2.770107 0.434352
6621.61 6621.6 1.160000 3.604092 109.911 2.990875 0.470042
6628.85 6628.84 1.210000 3.583644 114.645 3.184173 0.505745
6636.41 6636.4 1.260000 3.579889 119.539 3.332594 0.532309
6644.26 6644.26 1.310000 3.578169 124.311 3.471612 0.556762
6652.43 6652.42 1.360000 3.560981 129.182 3.670193 0.594737
6660.89 6660.89 1.410000 3.544044 134.235 3.878876 0.633656
6669.66 6669.66 1.460000 3.538182 139.082 4.042583 0.661452
6678.75 6678.74 1.510000 3.531734 143.977 4.211978 0.690158
6688.13 6688.12 1.560000 3.512999 148.804 4.435506 0.732209
6697.8 6697.8 1.610000 3.485517 153.604 4.706084 0.786332
6707.79 6707.79 1.660000 3.457986 158.396 4.988384 0.842459
6718.08 6718.09 1.710000 3.436814 163.377 5.255364 0.893287
6728.69 6728.69 1.760000 3.421005 168.306 5.500150 0.939847
6739.59 6739.6 1.810000 3.412325 173.056 5.704670 0.980458
6750.81 6750.81 1.860000 3.396451 177.737 5.952757 1.032426
6762.32 6762.32 1.910000 3.372013 182.436 6.261295 1.096954
6774.14 6774.14 1.960000 3.349881 187.03 6.562620 1.161069
6786.26 6786.27 2.010000 3.327911 191.65 6.874102 1.228551
6798.71 6798.7 2.060000 3.307397 196.145 7.181178 1.294595
6811.42 6811.43 2.110000 3.289032 188.455 7.027542 1.275659
6824.47 6824.47 2.160000 3.264574 204.211 7.803599 1.427335
6837.82 6837.82 2.210000 3.240094 209.185 8.191799 1.512720
6851.48 6851.47 2.260000 3.219242 213.561 8.539363 1.593260
6865.43 6865.42 2.310000 3.200043 217.915 8.882349 1.674553
6879.68 6879.68 2.360000 3.178785 222.308 9.256046 1.762488
6894.24 6894.24 2.410000 3.155142 227.369 9.693272 1.862577
6909.11 6909.11 2.460000 3.130016 231.749 10.1314 1.965319
6924.28 6924.28 2.510000 3.105739 235.776 10.5607 2.067896
6939.76 6939.76 2.560000 3.082089 239.996 11.0071 2.176772
6955.54 6955.54 2.610000 3.059713 244.126 11.4498 2.287000
6971.63 6971.63 2.660000 3.035960 248.24 11.9226 2.406631
6988.02 6988.02 2.710000 3.011312 252.687 12.4391 2.537533
7004.72 7004.72 2.760000 2.986829 256.662 12.9478 2.667969
7021.72 7021.72 2.810000 2.961966 260.481 13.4713 2.803736
7039.03 7039.03 2.860000 2.937597 264.55 14.0193 2.947839
7056.64 7056.64 2.910000 2.912827 268.221 14.5703 3.094938
7074.56 7074.56 2.960000 2.887553 270.121 15.0491 3.232095
7092.78 7092.78 3.010000 2.862299 276.383 15.7919 3.426452
7111.3 7111.3 3.060000 2.845094 279.904 16.2705 3.567102
7130.13 7130.13 3.110000 3.144569 270.535 11.6566 2.570455
7149.27 7149.27 3.160000 2.966539 278.922 14.3587 3.202656
7168.71 7168.71 3.210000 3.000821 283.422 14.0992 3.178999
7188.45 7188.45 3.260000 2.959461 286.087 14.8328 3.381613
7208.5 7208.5 3.310000 2.919751 290.704 15.6826 3.613313
7228.87 7228.86 3.360000 2.896763 295.085 16.2892 3.794335
7249.52 7249.52 3.410000 2.878266 298.487 16.7847 3.953590
7270.48 7270.48 3.460000 2.848483 303.254 17.5681 4.183029
7281.08 7281.08 3.490000 2.828207 300.236 17.7496 4.248657

File: Mn-K-Mn3O4.xdi
# XDI/1.0 BlueSky/1.5.3
# Beamline.name: 6BM
# Beamline.xray_source: NSLS-II three-pole wiggler
# Beamline.collimation: paraboloid mirror, 5 nm Rh on 30 nm Pt
# Beamline.focusing: not in use
# Beamline.harmonic_rejection: flat mirror, Si stripe, pitch = 7.0 mrad relative to beam
# Detector.i0: 10 cm N2
# Detector.I1: 25 cm N2
# Detector.I2: 25 cm N2
# Element.symbol: Mn
# Element.edge: K
# Facility.name: NSLS-II
# Facility.energy: 3.0
# Facility.current: 400.7
# Facility.mode: top-off
# Facility.GUP: 305832
# Facility.SAF: 305669
# Facility.cycle: 2020-1
# Mono.name: Si(111)
# Mono.d_spacing: 3.13532
# Mono.encoder_resolution: 0.0000050 deg/ct
# Mono.angle_offset: 16.0581 deg
# Mono.scan_mode: fixed exit
# Mono.scan_type: step
# Mono.direction: forward in energy
# Sample.name: Mn3O4
# Sample.prep: Powder in polyethylene glycol pellet
# Sample.x_position: -2.106 mm
# Sample.y_position: 103.734 mm
# Scan.experimenters: Neil Hyatt, Martin Stennett, Dan Austin, Seb Lawson
# Scan.edge_energy: 6539.0
# Scan.start_time: 2020-03-03T18:49:47
# Scan.end_time: 2020-03-03T19:01:39
# Scan.transient_id: 22670
# Scan.uid: c353bdda-aa47-43ee-b046-8776d13863b4
# Scan.plot_hint: ln(i0/itrans)  --  ln($5/$6)
# Column.1: energy eV
# Column.2: requested_energy eV
# Column.3: measurement_time seconds
# Column.4: mutrans
# Column.5: i0
# Column.6: itrans
# Column.7: irefer
# ///////////
#
# -----------
#  energy  requested_energy  measurement_time  mutrans  i0  itrans  irefer
6339.005  6339.000  1.000  1.891328  127.513  19.2381  1.498419
6369.012  6369.000  1.000  1.856104  127.734  19.9623  1.595750
6399.012  6399.000  1.000  1.821232  127.954  20.7063  1.713251
6429.013  6429.000  1.000  1.787041  128.056  21.4436  1.835252
6459.011  6459.000  1.000  1.753946  126.973  21.9778  1.940713
6489.003  6489.000  1.000  1.723913  128.151  22.8579  2.065228
6511.002  6511.000  1.000  1.707070  128.132  23.2427  2.128933
6516.998  6517.000  1.000  1.705139  128.136  23.2884  2.119936
6522.998  6523.000  1.000  1.705744  128.071  23.2624  2.096800
6529.000  6529.000  1.000  1.712531  128.064  23.1038  2.026847
6529.736  6529.750  1.000  1.714237  127.933  23.0408  2.008710
6530.491  6530.500  1.000  1.716363  127.849  22.9768  2.003089
6531.237  6531.250  1.000  1.718647  127.78  22.912  1.969735
6531.991  6532.000  1.000  1.721418  127.751  22.8434  1.946249
6532.745  6532.750  1.000  1.724739  127.679  22.7548  1.910777
6533.497  6533.500  1.000  1.728715  127.624  22.6548  1.863497
6534.250  6534.250  1.000  1.733743  127.581  22.5336  1.812966
6534.995  6535.000  1.000  1.739945  127.504  22.3808  1.737188
6535.746  6535.750  1.000  1.748213  127.432  22.184  1.620607
6536.497  6536.500  1.000  1.760056  127.575  21.9473  1.450747
6537.254  6537.250  1.000  1.780397  127.707  21.5277  1.108666
6538.002  6538.000  1.000  1.825000  127.642  20.5782  0.600554
6538.749  6538.750  1.000  1.951312  127.65  18.1374  0.292529
6539.506  6539.500  1.000  2.103595  127.637  15.5739  0.169621
6540.258  6540.250  1.000  2.036136  127.58  16.6533  0.137430
6541.003  6541.000  1.000  2.045568  127.594  16.4988  0.111677
6541.752  6541.750  1.000  2.108567  127.576  15.4893  0.101689
6542.503  6542.500  1.000  2.180653  127.55  14.409  0.103283
6543.277  6543.250  1.000  2.286890  127.528  12.9546  0.079126
6544.068  6544.000  1.000  2.449387  127.527  11.0115  0.051631
6544.751  6544.750  1.000  2.691545  127.493  8.640953  0.047790
6545.492  6545.500  1.000  3.067964  127.52  5.931711  0.030855
6546.249  6546.250  1.000  3.584578  127.494  3.537755  0.019632
6546.999  6547.000  1.000  4.022235  127.494  2.283791  0.014998
6547.750  6547.750  1.000  4.319008  127.496  1.697371  0.010423
6548.500  6548.500  1.000  4.605582  127.48  1.274275  0.009265
6549.249  6549.250  1.000  4.905012  127.474  0.944501  0.007823
6550.000  6550.000  1.000  5.216263  127.469  0.691848  0.000931
6550.755  6550.750  1.000  5.504463  127.467  0.518610  0.009671
6551.499  6551.500  1.000  5.704588  127.5  0.424659  0.010857
6552.248  6552.250  1.000  5.797506  127.431  0.386768  0.008508
6553.002  6553.000  1.000  5.871614  127.441  0.359168  -0.001545
6553.750  6553.750  1.000  5.987364  127.458  0.319954  0.004628
6554.502  6554.500  1.000  6.147507  127.434  0.272556  0.012321
6555.247  6555.250  1.000  6.380108  127.453  0.216025  0.008417
6555.995  6556.000  1.000  6.669718  127.432  0.161681  0.009178
6556.755  6556.750  1.000  6.950402  127.852  0.122514  0.013835
6557.502  6557.500  1.000  7.179136  127.843  0.097458  0.011566
6558.250  6558.250  1.000  7.233822  127.833  0.092264  0.007465
6559.001  6559.000  1.000  7.123833  127.865  0.103018  0.012375
6559.747  6559.750  1.000  6.888309  127.848  0.130358  0.008938
6560.502  6560.500  1.000  6.623245  127.752  0.169797  0.008966
6561.256  6561.250  1.000  6.402350  127.585  0.211493  0.006272
6562.001  6562.000  1.000  6.235660  127.772  0.250221  0.006232
6562.749  6562.750  1.000  6.103300  127.778  0.285645  0.006927
6563.500  6563.500  1.000  6.020168  127.802  0.310464  0.008395
6564.250  6564.250  1.000  5.995921  127.807  0.318095  0.009602
6565.005  6565.000  1.000  6.008228  127.778  0.314135  0.007155
6565.749  6565.750  1.000  6.042475  127.806  0.303626  0.009914
6566.496  6566.500  1.000  6.090281  127.776  0.289384  0.009201
6567.255  6567.250  1.000  6.139032  127.812  0.275692  0.008863
6568.003  6568.000  1.000  6.177990  127.768  0.265066  0.009271
6568.751  6568.750  1.000  6.197572  127.784  0.259960  0.008195
6571.198  6571.180  1.000  6.084710  127.824  0.291109  0.009027
6574.582  6574.580  1.000  5.905075  127.837  0.348431  0.009587
6578.172  6578.160  1.000  5.732662  127.82  0.413937  0.009032
6581.920  6581.910  1.000  5.460350  127.871  0.543717  0.009180
6585.834  6585.830  1.000  5.380109  127.887  0.589215  0.008790
6589.940  6589.930  1.000  5.424108  127.878  0.563815  0.009593
6594.201  6594.190  1.000  5.548829  127.944  0.497958  0.011037
6598.640  6598.630  1.000  5.729292  128  0.415919  0.009469
6603.248  6603.240  1.000  5.741711  128.033  0.410891  0.008433
6608.022  6608.010  1.000  5.809567  128.131  0.384231  0.007542
6612.978  6612.970  1.000  5.872629  128.237  0.361048  0.010380
6618.099  6618.090  1.000  5.842946  128.289  0.372075  0.007674
6623.392  6623.380  1.000  5.786353  128.823  0.395378  0.005386
6628.846  6628.840  1.000  5.754131  128.721  0.408002  0.009412
6634.486  6634.480  1.000  5.731463  129.036  0.418379  0.011509
6640.296  6640.290  1.000  5.734522  129.093  0.417283  0.015757
6646.275  6646.270  1.000  5.645571  129.194  0.456458  0.008249
6652.427  6652.420  1.000  5.586605  129.272  0.484476  0.014606
6658.744  6658.740  1.000  5.605116  129.329  0.475799  0.006895
6665.231  6665.230  1.000  5.608177  129.416  0.474664  0.005770
6671.904  6671.900  1.000  5.564469  129.464  0.496056  0.004541
6678.748  6678.740  1.000  5.483077  129.469  0.538141  0.017366
6685.747  6685.740  1.000  5.505233  129.498  0.526468  0.017890
6692.930  6692.920  1.000  5.543113  129.464  0.506765  0.009918
6700.276  6700.270  1.000  5.551741  129.4  0.502164  0.011680
6707.799  6707.790  1.000  5.569177  129.305  0.493120  0.008796
6715.501  6715.490  1.000  5.568158  129.254  0.493429  0.008897
6723.365  6723.350  1.000  5.515138  129.095  0.519654  0.008504
6731.401  6731.390  1.000  5.426568  128.954  0.567160  0.011081
6739.596  6739.600  1.000  5.374702  128.706  0.596206  0.014415
6747.978  6747.980  1.000  5.388571  128.463  0.586883  0.001102
6756.544  6756.530  1.000  5.383058  128.207  0.588949  0.009437
6765.260  6765.250  1.000  5.364732  127.868  0.598258  0.007037
6774.134  6774.140  1.000  5.304698  127.49  0.633396  0.007020
6783.224  6783.210  1.000  5.268773  127.081  0.654456  -0.000563
6792.449  6792.450  1.000  5.250166  126.537  0.663892  0.010255
6801.870  6801.850  1.000  5.250955  125.966  0.660378  0.011228
6811.413  6811.430  1.000  5.245034  119.88  0.632204  0.014688
6821.167  6821.180  1.000  5.254787  123.911  0.647119  0.013018
6831.097  6831.110  1.000  5.214838  123.886  0.673359  0.010056
6841.183  6841.200  1.000  5.167333  114.573  0.653037  0.010582
6851.452  6851.470  1.000  5.118058  122.358  0.732638  0.019585
6861.889  6861.900  1.000  5.097357  121.345  0.741766  0.007295
6872.499  6872.510  1.000  5.092014  120.61  0.741226  0.006867
6883.282  6883.290  1.000  5.073248  119.942  0.751081  0.015685
6894.232  6894.240  1.000  5.061427  119.186  0.755224  0.008084
6905.352  6905.360  1.000  5.021115  118.258  0.780169  0.006720
6916.646  6916.660  1.000  4.974888  117.116  0.809191  -0.001471
6928.104  6928.120  1.000  4.952218  116.011  0.819935  0.011489
6939.740  6939.760  1.000  4.938611  114.881  0.823070  0.009515
6951.558  6951.570  1.000  4.931766  113.778  0.820769  0.004590
6963.568  6963.550  1.000  4.916209  112.651  0.825380  0.008093
6975.697  6975.700  1.000  4.889692  111.49  0.838824  0.012992
6988.005  6988.020  1.000  4.859572  110.366  0.855753  0.001441
7000.521  7000.520  1.000  4.822933  109.209  0.878389  0.008235
7013.195  7013.180  1.000  4.789918  108.085  0.898529  0.006726
7026.033  7026.020  1.000  4.765470  106.926  0.910892  0.006817
7039.046  7039.030  1.000  4.745986  105.8  0.919027  0.016440
7052.231  7052.210  1.000  4.730307  104.645  0.923366  0.007082
7065.572  7065.560  1.000  4.705006  103.63  0.937833  0.009359
7079.067  7079.080  1.000  4.675338  102.597  0.956450  0.009902
7092.763  7092.780  1.000  4.650680  101.588  0.970685  0.006265
7106.626  7106.640  1.000  4.624100  100.688  0.988001  0.007331
7120.666  7120.680  1.000  4.594859  99.1349  1.001624  0.016934
7134.874  7134.890  1.000  4.571026  93.6907  0.969449  0.014815
7149.268  7149.270  1.000  4.549793  94.4775  0.998570  0.011203
7163.800  7163.820  1.000  4.528014  94.2111  1.017679  0.009521
7178.523  7178.540  1.000  4.499980  93.1968  1.035343  0.008293
7193.433  7193.440  1.000  4.469562  92.5476  1.059885  0.008601
7208.484  7208.500  1.000  4.441629  92.1912  1.085712  0.010859
7223.730  7223.740  1.000  4.415207  91.8357  1.110481  0.009511
7239.131  7239.150  1.000  4.387813  91.2005  1.133429  0.008971
7254.712  7254.730  1.000  4.362468  90.3928  1.152227  0.015041
7270.457  7270.480  1.000  4.340082  90.4437  1.178975  0.007962
7281.070  7281.080  1.000  4.324770  89.6905  1.187196  0.012403