Folder: webxdiviewer/xdidata/Data/Mo

Note: xdidata/README.md
# bmm-standards
A pretty webpage for BMM's collection of common XAFS materials

[BMM's common materials collection](./BMM-standards.html)

Plotting of the data will happen soon.

Periodic table adapted from [some guy named Daniel](https://codepen.io/gooseofmusic/pen/PjKdNQ)

[This](https://www.coderstool.com/scss-to-css) is a helpful tool for
dealing with Sassy CSS.

File: Mo-K-Powellite.xdi
# XDI/1.0 BlueSky/1.10.0 BMM/2023-1.0-py310-tiled
# Beamline.name: BMM (06BM) -- Beamline for Materials Measurement (NIST)
# Beamline.xray_source: NSLS-II three-pole wiggler
# Beamline.collimation: paraboloid mirror, 5 nm Rh on 30 nm Pt
# Beamline.focusing: not in use
# Beamline.harmonic_rejection: flat mirror, Pt stripe, pitch = 7.0 mrad relative to beam
# Beamline.software: Bluesky 1.10.0, Ophyd 1.7.0, DataBroker 2.0.0b13, Python 3.10.8, 2023-1.0-py310-tiled
# Detector.I0: 10 cm N2
# Detector.I1: 25 cm N2
# Detector.I2: 25 cm N2
# Element.symbol: Mo
# Element.edge: K
# Element.reference: Mo
# Element.reference_material: Mo foil
# Facility.name: NSLS-II
# Facility.energy: 3.0
# Facility.current: 399.3
# Facility.mode: top-off
# Facility.GUP: 301027
# Facility.SAF: 310583
# Facility.cycle: 2023-2
# Mono.name: Si(111)
# Mono.d_spacing: 3.13519
# Mono.encoder_resolution: 0.0000050 deg/ct
# Mono.angle_offset: 16.0754 deg
# Mono.scan_mode: pseudo channel cut
# Mono.scan_type: step
# Mono.direction: forward in energy
# Sample.name: CaMoO4
# Sample.prep: powder in PEG pellet
# Sample.x: 117.785 mm
# Sample.y: 114.695 mm
# Sample.SDD_position: 205.000 mm
# Scan.experimenters: Bruce Ravel
# Scan.edge_energy: 19999.5
# Scan.start_time: 2023-06-23T21:06:13
# Scan.end_time: 2023-06-23T21:13:43
# Scan.transient_id: 85033
# Scan.uid: 5fdb380f-2307-4e00-878d-ff4c4086331f
# Scan.plot_hint: ln(I0/It)  --  ln($5/$6)
# Column.1: energy eV
# Column.2: requested_energy eV
# Column.3: measurement_time seconds
# Column.4: xmu
# Column.5: I0 nA
# Column.6: It nA
# Column.7: Ir nA
# ///////////
# sample courtesy Martin Stennett, University of Sheffield
# -----------
# energy  requested_energy  measurement_time  xmu  I0  It  Ir
  19799.393  19799.500  0.500  -0.102153  7.647844  8.470391  6.506718
  19829.548  19829.500  0.500  -0.103583  7.602139  8.431818  6.479958
  19859.587  19859.500  0.500  -0.104995  7.524715  8.357739  6.430052
  19889.597  19889.500  0.500  -0.106046  7.360432  8.183869  6.296619
  19919.575  19919.500  0.500  -0.106154  7.371878  8.197476  6.301931
  19949.488  19949.500  0.500  -0.103182  7.293665  8.086439  6.201514
  19971.342  19971.500  0.500  -0.095541  7.239798  7.965617  6.071241
  19977.422  19977.500  0.500  -0.090872  7.224659  7.911933  6.011795
  19983.418  19983.500  0.500  -0.084598  7.208438  7.844796  5.930120
  19989.400  19989.500  0.500  -0.074873  7.190346  7.749376  5.809875
  19990.243  19990.400  0.500  -0.072806  7.189411  7.732371  5.785024
  19991.173  19991.300  0.500  -0.070352  7.185714  7.709453  5.759221
  19992.086  19992.200  0.500  -0.067857  7.183291  7.687645  5.729674
  19992.963  19993.100  0.500  -0.065006  7.181514  7.663865  5.697553
  19993.876  19994.000  0.500  -0.061915  7.178707  7.637226  5.664111
  19994.842  19994.900  0.500  -0.057996  7.176164  7.604655  5.620197
  19995.720  19995.800  0.500  -0.054395  7.172323  7.573265  5.576198
  19996.633  19996.700  0.500  -0.049989  7.170494  7.538050  5.527023
  19997.564  19997.600  0.500  -0.044817  7.168045  7.496604  5.471460
  19998.477  19998.500  0.500  -0.038899  7.165307  7.449524  5.404129
  19999.338  19999.400  0.500  -0.032269  7.161699  7.396572  5.330931
  20000.269  20000.300  0.500  -0.023453  7.158928  7.328814  5.232967
  20001.200  20001.200  0.500  -0.012574  7.157303  7.247865  5.110387
  20002.096  20002.100  0.500  -0.000495  7.153517  7.157056  4.971675
  20002.992  20003.000  0.500  0.016089  7.151014  7.036882  4.788262
  20003.906  20003.900  0.500  0.038862  7.147326  6.874896  4.541359
  20004.785  20004.800  0.500  0.067285  7.142729  6.677941  4.262065
  20005.699  20005.700  0.500  0.107471  7.142057  6.414297  3.926252
  20006.613  20006.600  0.500  0.165351  7.138241  6.050343  3.532312
  20007.492  20007.500  0.500  0.242174  7.134929  5.600347  3.121723
  20008.353  20008.400  0.500  0.342670  7.130233  5.061554  2.698267
  20009.303  20009.300  0.500  0.470636  7.128481  4.452484  2.266654
  20010.217  20010.200  0.500  0.600109  7.125821  3.910307  1.902532
  20011.044  20011.100  0.500  0.702364  7.121905  3.528282  1.635628
  20012.028  20012.000  0.500  0.756169  7.118899  3.342049  1.463021
  20012.943  20012.900  0.500  0.739159  7.116500  3.398239  1.407731
  20013.805  20013.800  0.500  0.682492  7.111498  3.593840  1.418246
  20014.685  20014.700  0.500  0.617115  7.108791  3.835184  1.444902
  20015.635  20015.600  0.500  0.568062  7.105809  4.026312  1.444442
  20016.497  20016.500  0.500  0.547538  7.102393  4.107825  1.399800
  20017.394  20017.400  0.500  0.552476  7.099078  4.085684  1.316060
  20018.292  20018.300  0.500  0.579770  7.095982  3.973942  1.201909
  20019.207  20019.200  0.500  0.622811  7.090970  3.803842  1.081676
  20020.070  20020.100  0.500  0.676554  7.087859  3.603227  0.971935
  20021.003  20021.000  0.500  0.748533  7.086319  3.352256  0.865226
  20021.900  20021.900  0.500  0.835245  7.080987  3.071508  0.768831
  20022.728  20022.800  0.500  0.929998  7.078996  2.793049  0.688172
  20023.644  20023.700  0.500  1.037400  7.076770  2.507828  0.616617
  20024.506  20024.500  0.500  1.133548  7.074571  2.277229  0.564738
  20027.518  20027.510  0.500  1.320804  7.065583  1.885949  0.496953
  20030.725  20030.700  0.500  1.347289  7.061656  1.835635  0.481412
  20034.091  20034.060  0.500  1.451688  7.054457  1.651974  0.420798
  20037.635  20037.580  0.500  1.645680  7.048051  1.359437  0.344540
  20041.321  20041.280  0.500  1.820989  7.035158  1.138750  0.282794
  20045.203  20045.150  0.500  1.856493  7.026243  1.097636  0.260693
  20049.245  20049.200  0.500  1.865801  7.014068  1.085582  0.246369
  20053.429  20053.410  0.500  1.833972  7.003703  1.119035  0.258632
  20057.757  20057.790  0.500  1.726677  7.019630  1.248614  0.312281
  20062.335  20062.350  0.500  1.648088  7.007875  1.348437  0.348515
  20067.127  20067.080  0.500  1.590208  6.995552  1.426275  0.362557
  20071.974  20071.980  0.500  1.521585  6.982614  1.524762  0.382192
  20077.053  20077.050  0.500  1.467151  6.969191  1.606966  0.408714
  20082.224  20082.290  0.500  1.461332  6.956947  1.613505  0.415944
  20087.770  20087.710  0.500  1.448970  6.940796  1.629782  0.410164
  20093.301  20093.290  0.500  1.434358  6.928608  1.650867  0.398634
  20099.083  20099.050  0.500  1.436881  6.911954  1.642750  0.406565
  20104.957  20104.980  0.500  1.446713  6.896672  1.623080  0.420665
  20111.084  20111.080  0.500  1.480530  6.881828  1.565733  0.405280
  20117.392  20117.350  0.500  1.540298  6.866975  1.471711  0.378261
  20123.847  20123.790  0.500  1.584104  6.851419  1.405442  0.359295
  20130.412  20130.400  0.500  1.592031  6.833174  1.390632  0.347757
  20137.231  20137.190  0.500  1.582632  6.816098  1.400256  0.345903
  20144.179  20144.150  0.500  1.553719  6.799878  1.437902  0.364781
  20151.257  20151.270  0.500  1.534937  6.782290  1.461375  0.386236
  20158.555  20158.570  0.500  1.521962  6.763182  1.476288  0.396115
  20166.107  20166.050  0.500  1.513971  6.744682  1.484063  0.398443
  20173.701  20173.690  0.500  1.489647  6.722810  1.515673  0.400307
  20181.480  20181.500  0.500  1.455728  6.704881  1.563783  0.410440
  20189.515  20189.490  0.500  1.438657  6.681050  1.585053  0.413802
  20197.683  20197.650  0.500  1.437220  6.663734  1.583219  0.394811
  20205.982  20205.970  0.500  1.444373  6.643096  1.567065  0.391559
  20214.486  20214.470  0.500  1.453181  6.622139  1.548423  0.414008
  20223.194  20223.150  0.500  1.459083  6.599850  1.534131  0.435153
  20232.036  20231.990  0.500  1.450838  6.578796  1.541897  0.429957
  20241.048  20241.000  0.500  1.451467  6.556314  1.535661  0.423762
  20250.229  20250.190  0.500  1.460562  6.531469  1.515991  0.409238
  20259.546  20259.550  0.500  1.467848  6.508089  1.499599  0.392611
  20269.123  20269.070  0.500  1.465036  6.482914  1.498005  0.389885
  20278.746  20278.770  0.500  1.458870  6.458340  1.501556  0.391794
  20288.704  20288.650  0.500  1.446298  6.433890  1.514796  0.404875
  20298.707  20298.690  0.500  1.433427  6.409687  1.528648  0.424846
  20308.902  20308.900  0.500  1.424295  6.383063  1.536264  0.436669
  20319.324  20319.290  0.500  1.421451  6.358091  1.534611  0.432839
  20329.902  20329.850  0.500  1.419114  6.331479  1.531763  0.420485
  20340.601  20340.580  0.500  1.411940  6.303528  1.535981  0.413176
  20351.493  20351.480  0.500  1.404781  6.277287  1.540576  0.412903
  20362.615  20362.550  0.500  1.404489  6.249711  1.534257  0.416258
  20373.840  20373.790  0.500  1.406050  6.220890  1.524799  0.417423
  20385.261  20385.210  0.500  1.408857  6.193340  1.513792  0.423519
  20396.804  20396.790  0.500  1.409289  6.164155  1.506007  0.423077
  20408.616  20408.550  0.500  1.407043  6.133632  1.501920  0.423464
  20420.497  20420.480  0.500  1.402529  6.103278  1.501248  0.420911
  20432.630  20432.580  0.500  1.398673  6.075988  1.500309  0.419757
  20444.852  20444.850  0.500  1.394288  6.041832  1.498432  0.420637
  20457.345  20457.290  0.500  1.385214  6.012778  1.504820  0.418491
  20469.946  20469.910  0.500  1.379745  5.980556  1.504963  0.419555
  20482.709  20482.690  0.500  1.375577  5.949147  1.503313  0.422294
  20495.747  20495.650  0.500  1.368397  5.914698  1.505377  0.429558
  20508.747  20508.780  0.500  1.364315  5.882393  1.503278  0.429198
  20522.133  20522.080  0.500  1.362527  5.842235  1.495688  0.426738
  20535.610  20535.550  0.500  1.359773  5.794370  1.487525  0.426434
  20549.254  20549.200  0.500  1.357164  5.785862  1.489222  0.427352
  20563.065  20563.010  0.500  1.354706  5.746710  1.482784  0.425474
  20577.005  20577.000  0.500  1.352513  5.683337  1.469652  0.422727
  20591.245  20591.160  0.500  1.350831  5.680512  1.471394  0.419973
  20605.522  20605.490  0.500  1.347419  5.642882  1.466643  0.419240
  20620.044  20619.990  0.500  1.342939  5.599179  1.461819  0.425060
  20634.736  20634.660  0.500  1.337968  5.595167  1.468050  0.429518
  20649.487  20649.500  0.500  1.332360  5.556766  1.466174  0.431491
  20664.559  20664.520  0.500  1.326894  5.516390  1.463499  0.429910
  20679.784  20679.700  0.500  1.321459  5.322049  1.419634  0.415654
  20695.089  20695.060  0.500  1.316147  5.445498  1.460301  0.428966
  20710.680  20710.590  0.500  1.311537  5.403876  1.455834  0.427186
  20726.313  20726.290  0.500  1.308326  5.365274  1.450084  0.425555
  20742.254  20742.160  0.500  1.303670  5.323609  1.445538  0.427729
  20758.295  20758.210  0.500  1.299855  5.284903  1.440513  0.429872
  20774.399  20774.420  0.500  1.297200  5.246011  1.433713  0.430166
  20790.870  20790.810  0.500  1.294549  5.205106  1.426311  0.430301
  20807.425  20807.370  0.500  1.290025  5.165530  1.421884  0.426876
  20824.158  20824.100  0.500  1.286182  5.123308  1.415691  0.424691
  20841.033  20841.000  0.500  1.280386  5.075595  1.410660  0.424703
  20852.393  20852.360  0.500  1.277377  5.051051  1.408069  0.423963