Folder: webxdiviewer/xdidata/Data/Nb

Note: xdidata/README.md
# bmm-standards
A pretty webpage for BMM's collection of common XAFS materials

[BMM's common materials collection](./BMM-standards.html)

Plotting of the data will happen soon.

Periodic table adapted from [some guy named Daniel](https://codepen.io/gooseofmusic/pen/PjKdNQ)

[This](https://www.coderstool.com/scss-to-css) is a helpful tool for
dealing with Sassy CSS.

File: Nb-K-CeriumTitanoniobate.xdi
# XDI/1.0 BlueSky/1.10.0 BMM/2023-1.0-py310-tiled
# Beamline.name: BMM (06BM) -- Beamline for Materials Measurement (NIST)
# Beamline.xray_source: NSLS-II three-pole wiggler
# Beamline.collimation: paraboloid mirror, 5 nm Rh on 30 nm Pt
# Beamline.focusing: not in use
# Beamline.harmonic_rejection: flat mirror, Pt stripe, pitch = 7.0 mrad relative to beam
# Beamline.software: Bluesky 1.10.0, Ophyd 1.7.0, DataBroker 2.0.0b13, Python 3.10.8, 2023-1.0-py310-tiled
# Detector.I0: 10 cm N2
# Detector.I1: 25 cm N2
# Detector.I2: 25 cm N2
# Element.symbol: Nb
# Element.edge: K
# Element.reference: Nb
# Element.reference_material: Nb foil
# Facility.name: NSLS-II
# Facility.energy: 3.0
# Facility.current: 400.7
# Facility.mode: top-off
# Facility.GUP: 301027
# Facility.SAF: 310583
# Facility.cycle: 2023-2
# Mono.name: Si(111)
# Mono.d_spacing: 3.13519
# Mono.encoder_resolution: 0.0000050 deg/ct
# Mono.angle_offset: 16.0754 deg
# Mono.scan_mode: pseudo channel cut
# Mono.scan_type: step
# Mono.direction: forward in energy
# Sample.name: CeTiNbO6
# Sample.prep: powder in PEG pellet
# Sample.x: 117.785 mm
# Sample.y: 114.695 mm
# Sample.SDD_position: 205.000 mm
# Scan.experimenters: Bruce Ravel
# Scan.edge_energy: 18985.6
# Scan.start_time: 2023-06-23T20:39:52
# Scan.end_time: 2023-06-23T20:47:32
# Scan.transient_id: 85016
# Scan.uid: 27c241a0-c5c7-48f1-90a5-b652c1484fde
# Scan.plot_hint: ln(I0/It)  --  ln($5/$6)
# Column.1: energy eV
# Column.2: requested_energy eV
# Column.3: measurement_time seconds
# Column.4: xmu
# Column.5: I0 nA
# Column.6: It nA
# Column.7: Ir nA
# ///////////
# sample courtesy Martin Stennett, University of Sheffield
# -----------
# energy  requested_energy  measurement_time  xmu  I0  It  Ir
  18785.510  18785.600  0.500  0.633658  9.968270  5.289634  4.578394
  18815.652  18815.600  0.500  0.628830  9.908697  5.283471  4.574837
  18845.689  18845.600  0.500  0.624129  9.840744  5.271961  4.567232
  18875.745  18875.600  0.500  0.619494  9.765244  5.255816  4.554464
  18905.692  18905.600  0.500  0.615876  9.686956  5.232579  4.534293
  18935.720  18935.600  0.500  0.613355  9.608435  5.203267  4.504534
  18957.638  18957.600  0.500  0.615667  9.558961  5.164517  4.464219
  18963.681  18963.600  0.500  0.617346  9.538799  5.144982  4.441914
  18969.650  18969.600  0.500  0.620422  9.522339  5.120330  4.411915
  18975.623  18975.600  0.500  0.625693  9.506455  5.084914  4.361419
  18976.492  18976.500  0.500  0.626927  9.504569  5.077636  4.350827
  18977.409  18977.400  0.500  0.628495  9.490296  5.062067  4.335316
  18978.294  18978.300  0.500  0.629609  9.469831  5.045526  4.311253
  18979.195  18979.200  0.500  0.631034  9.460614  5.033437  4.294102
  18980.128  18980.100  0.500  0.633158  9.459840  5.022348  4.274432
  18980.998  18981.000  0.500  0.635120  9.461227  5.013240  4.255834
  18981.868  18981.900  0.500  0.637307  9.465377  5.004479  4.232687
  18982.769  18982.800  0.500  0.640136  9.475335  4.995595  4.205726
  18983.639  18983.700  0.500  0.643382  9.476930  4.980241  4.165472
  18984.572  18984.600  0.500  0.647379  9.481868  4.962958  4.108628
  18985.458  18985.500  0.500  0.651997  9.480364  4.939309  4.034697
  18986.392  18986.400  0.500  0.658825  9.476010  4.903446  3.937022
  18987.294  18987.300  0.500  0.666877  9.487545  4.870045  3.835546
  18988.180  18988.200  0.500  0.678901  9.472782  4.804348  3.719325
  18989.098  18989.100  0.500  0.693923  9.466273  4.729465  3.605909
  18989.969  18990.000  0.500  0.713139  9.471114  4.641825  3.498181
  18990.903  18990.900  0.500  0.736990  9.469663  4.531727  3.384688
  18991.805  18991.800  0.500  0.763708  9.466071  4.410577  3.264792
  18992.739  18992.700  0.500  0.792929  9.458289  4.280039  3.135965
  18993.626  18993.600  0.500  0.820586  9.453951  4.161381  3.016061
  18994.449  18994.500  0.500  0.845955  9.451990  4.056297  2.903146
  18995.368  18995.400  0.500  0.869456  9.451902  3.962043  2.796873
  18996.287  18996.300  0.500  0.888499  9.448248  3.885805  2.700922
  18997.189  18997.200  0.500  0.905770  9.445262  3.818063  2.609548
  18998.061  18998.100  0.500  0.924466  9.440179  3.745328  2.515651
  18998.995  18999.000  0.500  0.947909  9.443510  3.659836  2.410658
  18999.899  18999.900  0.500  0.980913  9.445182  3.541646  2.285646
  19000.786  19000.800  0.500  1.022496  9.426828  3.390793  2.150259
  19001.689  19001.700  0.500  1.076234  9.428503  3.213958  2.007538
  19002.609  19002.600  0.500  1.143777  9.426757  3.003492  1.854928
  19003.528  19003.500  0.500  1.219175  9.428428  2.785853  1.709083
  19004.400  19004.400  0.500  1.297710  9.418067  2.572608  1.575184
  19005.304  19005.300  0.500  1.378568  9.412916  2.371481  1.455099
  19006.176  19006.200  0.500  1.459659  9.411859  2.186521  1.348678
  19007.111  19007.100  0.500  1.539944  9.410243  2.017491  1.251080
  19007.999  19008.000  0.500  1.605931  9.413273  1.889269  1.176786
  19008.840  19008.900  0.500  1.659812  9.416325  1.790747  1.118169
  19009.950  19009.800  0.500  1.708234  9.393324  1.701934  1.062610
  19010.458  19010.600  0.500  1.720958  9.391984  1.680176  1.047931
  19013.504  19013.610  0.500  1.733735  9.396903  1.659714  1.028101
  19016.742  19016.800  0.500  1.722862  9.389905  1.676608  1.038198
  19020.076  19020.160  0.500  1.770975  9.387547  1.597450  0.984751
  19023.618  19023.680  0.500  1.852357  9.384158  1.472065  0.897723
  19027.320  19027.380  0.500  1.830306  9.367879  1.502275  0.905856
  19031.182  19031.250  0.500  1.721749  9.351662  1.671640  1.010813
  19035.269  19035.300  0.500  1.624519  9.345645  1.841152  1.135088
  19039.501  19039.510  0.500  1.564692  9.328686  1.951117  1.215083
  19043.893  19043.890  0.500  1.535629  9.315354  2.005785  1.246885
  19048.416  19048.450  0.500  1.526956  9.305542  2.021125  1.251875
  19053.147  19053.180  0.500  1.519737  9.282538  2.030736  1.262154
  19058.057  19058.080  0.500  1.516333  9.282825  2.037723  1.272200
  19063.128  19063.150  0.500  1.520111  9.276775  2.028716  1.255932
  19068.394  19068.390  0.500  1.537510  9.263975  1.990972  1.222112
  19073.822  19073.810  0.500  1.570565  9.241713  1.921608  1.187270
  19079.413  19079.390  0.500  1.600613  9.228461  1.862052  1.161808
  19085.167  19085.150  0.500  1.613983  9.215386  1.834720  1.144860
  19091.069  19091.080  0.500  1.614871  9.195370  1.829109  1.141176
  19097.167  19097.180  0.500  1.606652  9.184443  1.842013  1.147383
  19103.444  19103.450  0.500  1.588168  9.164524  1.872307  1.160353
  19109.935  19109.890  0.500  1.570336  9.150487  1.903076  1.179587
  19116.477  19116.500  0.500  1.558691  9.121904  1.919352  1.198903
  19123.265  19123.290  0.500  1.545253  9.115434  1.943938  1.224074
  19130.251  19130.250  0.500  1.534939  9.093331  1.959329  1.237002
  19137.435  19137.370  0.500  1.528344  9.076764  1.968700  1.241355
  19144.656  19144.670  0.500  1.523470  9.058036  1.974237  1.241070
  19152.125  19152.150  0.500  1.523244  9.040703  1.970905  1.239260
  19159.809  19159.790  0.500  1.527406  9.020431  1.958318  1.223408
  19167.563  19167.600  0.500  1.530167  9.000116  1.948522  1.212238
  19175.631  19175.590  0.500  1.530624  8.976671  1.942558  1.219297
  19183.786  19183.750  0.500  1.529116  8.945726  1.938782  1.235757
  19192.029  19192.070  0.500  1.523776  8.945677  1.949152  1.244184
  19200.602  19200.570  0.500  1.517516  8.916161  1.954921  1.245700
  19209.265  19209.250  0.500  1.513515  8.892069  1.957455  1.242242
  19218.113  19218.090  0.500  1.514033  8.871757  1.951972  1.231744
  19227.133  19227.100  0.500  1.512531  8.850431  1.950206  1.226725
  19236.306  19236.290  0.500  1.505713  8.828228  1.958622  1.233171
  19245.668  19245.650  0.500  1.496692  8.796527  1.969274  1.245826
  19255.201  19255.170  0.500  1.491062  8.782739  1.977288  1.260424
  19264.907  19264.870  0.500  1.489755  8.754492  1.973506  1.264642
  19274.786  19274.750  0.500  1.490033  8.728789  1.967166  1.258788
  19284.789  19284.790  0.500  1.491391  8.705938  1.959354  1.247537
  19295.032  19295.000  0.500  1.489916  8.679188  1.956215  1.241663
  19305.367  19305.390  0.500  1.485254  8.657752  1.960503  1.244537
  19316.009  19315.950  0.500  1.478507  8.628187  1.967035  1.252041
  19326.694  19326.680  0.500  1.474492  8.591320  1.966510  1.254760
  19337.622  19337.580  0.500  1.473604  8.575437  1.964619  1.258720
  19348.628  19348.650  0.500  1.473486  8.549333  1.958870  1.256732
  19359.975  19359.890  0.500  1.470541  8.524418  1.958921  1.257401
  19371.303  19371.310  0.500  1.464617  8.486744  1.961851  1.258144
  19382.974  19382.890  0.500  1.457167  8.466650  1.971842  1.264275
  19394.660  19394.650  0.500  1.451988  8.434420  1.974535  1.267086
  19406.591  19406.580  0.500  1.448614  8.408151  1.975038  1.266536
  19418.702  19418.680  0.500  1.447507  8.378907  1.970348  1.265540
  19431.027  19430.950  0.500  1.445931  8.350739  1.966822  1.267049
  19443.418  19443.390  0.500  1.442682  8.314697  1.964706  1.267679
  19456.058  19456.010  0.500  1.437995  8.283068  1.966427  1.267887
  19468.830  19468.790  0.500  1.434238  8.163139  1.945250  1.256127
  19481.803  19481.750  0.500  1.430810  8.219123  1.965318  1.269763
  19494.960  19494.880  0.500  1.427722  8.187013  1.963693  1.268975
  19508.202  19508.180  0.500  1.424832  8.204594  1.973606  1.277157
  19521.696  19521.650  0.500  1.420861  8.161469  1.971043  1.274226
  19535.326  19535.300  0.500  1.416822  8.126296  1.970492  1.276408
  19549.109  19549.110  0.500  1.411509  8.095256  1.973422  1.280886
  19563.181  19563.100  0.500  1.408007  8.057296  1.971059  1.281422
  19577.290  19577.260  0.500  1.404313  8.026384  1.970763  1.282796
  19591.605  19591.590  0.500  1.400152  7.987060  1.969286  1.281895
  19606.178  19606.090  0.500  1.396523  7.910523  1.957504  1.275091
  19620.873  19620.760  0.500  1.392109  7.921867  1.968985  1.283006
  19635.608  19635.600  0.500  1.388305  7.865159  1.962340  1.279933
  19650.653  19650.620  0.500  1.384380  7.849383  1.966105  1.284467
  19665.874  19665.800  0.500  1.380287  7.805190  1.963054  1.284291
  19681.204  19681.160  0.500  1.376362  7.779134  1.964196  1.287453
  19696.712  19696.690  0.500  1.372044  7.739106  1.962546  1.287245
  19712.448  19712.390  0.500  1.367400  7.698616  1.961364  1.286990
  19728.347  19728.260  0.500  1.363234  7.661231  1.959989  1.287143
  19744.357  19744.310  0.500  1.358421  7.535711  1.937178  1.273235
  19760.565  19760.520  0.500  1.354083  7.586442  1.958698  1.287812
  19776.954  19776.910  0.500  1.349536  7.549076  1.957932  1.289593
  19793.508  19793.470  0.500  1.345524  7.507097  1.954873  1.289111
  19810.210  19810.200  0.500  1.341065  7.462326  1.951897  1.288616
  19827.114  19827.100  0.500  1.336933  7.432929  1.952259  1.290906
  19838.497  19838.460  0.500  1.333151  7.398977  1.950704  1.290694

File: Nb-K-NiobiumPentoxide.xdi
# XDI/1.0 BlueSky/1.10.0 BMM/2023-1.0-py310-tiled
# Beamline.name: BMM (06BM) -- Beamline for Materials Measurement (NIST)
# Beamline.xray_source: NSLS-II three-pole wiggler
# Beamline.collimation: paraboloid mirror, 5 nm Rh on 30 nm Pt
# Beamline.focusing: not in use
# Beamline.harmonic_rejection: flat mirror, Pt stripe, pitch = 7.0 mrad relative to beam
# Beamline.software: Bluesky 1.10.0, Ophyd 1.7.0, DataBroker 2.0.0b13, Python 3.10.8, 2023-1.0-py310-tiled
# Detector.I0: 10 cm N2
# Detector.I1: 25 cm N2
# Detector.I2: 25 cm N2
# Element.symbol: Nb
# Element.edge: K
# Element.reference: Nb
# Element.reference_material: Nb foil
# Facility.name: NSLS-II
# Facility.energy: 3.0
# Facility.current: 399.3
# Facility.mode: top-off
# Facility.GUP: 301027
# Facility.SAF: 310583
# Facility.cycle: 2023-2
# Mono.name: Si(111)
# Mono.d_spacing: 3.13519
# Mono.encoder_resolution: 0.0000050 deg/ct
# Mono.angle_offset: 16.0754 deg
# Mono.scan_mode: pseudo channel cut
# Mono.scan_type: step
# Mono.direction: forward in energy
# Sample.name: Nb2O5
# Sample.prep: powder in PEG pellet
# Sample.x: 117.785 mm
# Sample.y: 114.695 mm
# Sample.SDD_position: 205.000 mm
# Scan.experimenters: Bruce Ravel
# Scan.edge_energy: 18985.6
# Scan.start_time: 2023-06-23T20:15:37
# Scan.end_time: 2023-06-23T20:23:08
# Scan.transient_id: 85001
# Scan.uid: 6f661fdc-5c7f-4198-b5db-7da75444c5d4
# Scan.plot_hint: ln(I0/It)  --  ln($5/$6)
# Column.1: energy eV
# Column.2: requested_energy eV
# Column.3: measurement_time seconds
# Column.4: xmu
# Column.5: I0 nA
# Column.6: It nA
# Column.7: Ir nA
# ///////////
# sample courtesy Martin Stennett, University of Sheffield
# -----------
# energy  requested_energy  measurement_time  xmu  I0  It  Ir
  18785.464  18785.600  0.500  -0.162050  10.0463  11.8137  10.2223
  18815.606  18815.600  0.500  -0.163748  9.988668  11.7658  10.1863
  18845.720  18845.600  0.500  -0.164919  9.912496  11.6898  10.1282
  18875.745  18875.600  0.500  -0.165571  9.832278  11.6027  10.0574
  18905.661  18905.600  0.500  -0.164710  9.753686  11.5001  9.968129
  18935.642  18935.600  0.500  -0.160869  9.680549  11.3701  9.849891
  18957.654  18957.600  0.500  -0.151027  9.626065  11.1954  9.679941
  18963.587  18963.600  0.500  -0.146169  9.604855  11.1166  9.596887
  18969.713  18969.600  0.500  -0.137907  9.630076  11.0541  9.526953
  18975.559  18975.600  0.500  -0.125808  9.608250  10.8964  9.352350
  18976.444  18976.500  0.500  -0.123419  9.605485  10.8672  9.317659
  18977.314  18977.400  0.500  -0.120824  9.593662  10.8257  9.272867
  18978.199  18978.300  0.500  -0.117885  9.581919  10.7808  9.222078
  18979.084  18979.200  0.500  -0.114384  9.569006  10.7286  9.162232
  18980.033  18980.100  0.500  -0.110559  9.555321  10.6724  9.097596
  18980.919  18981.000  0.500  -0.106416  9.559708  10.6331  9.043261
  18981.883  18981.900  0.500  -0.101290  9.563409  10.5828  8.969769
  18982.737  18982.800  0.500  -0.095584  9.561802  10.5209  8.883853
  18983.655  18983.700  0.500  -0.089130  9.578062  10.471  8.791055
  18984.572  18984.600  0.500  -0.080779  9.584891  10.3913  8.650575
  18985.458  18985.500  0.500  -0.071529  9.579233  10.2895  8.474428
  18986.376  18986.400  0.500  -0.059050  9.581408  10.1642  8.243310
  18987.310  18987.300  0.500  -0.042369  9.575302  9.989719  7.947906
  18988.196  18988.200  0.500  -0.021685  9.574997  9.784898  7.642053
  18989.082  18989.100  0.500  0.007084  9.571961  9.504396  7.303592
  18990.032  18990.000  0.500  0.046513  9.567843  9.133009  6.922172
  18990.887  18990.900  0.500  0.094230  9.567997  8.707577  6.536003
  18991.821  18991.800  0.500  0.154302  9.566757  8.198835  6.099157
  18992.723  18992.700  0.500  0.219502  9.559056  7.675144  5.658055
  18993.578  18993.600  0.500  0.282986  9.569095  7.210600  5.261805
  18994.528  18994.500  0.500  0.346318  9.561539  6.762759  4.875286
  18995.431  18995.400  0.500  0.397785  9.557592  6.420849  4.563739
  18996.287  18996.300  0.500  0.435735  9.550236  6.176986  4.327420
  18997.205  18997.200  0.500  0.466004  9.549120  5.992118  4.128317
  18998.124  18998.100  0.500  0.495067  9.547996  5.819792  3.938015
  18998.980  18999.000  0.500  0.528135  9.551637  5.632639  3.743734
  18999.899  18999.900  0.500  0.575917  9.544526  5.365829  3.499291
  19000.834  19000.800  0.500  0.643017  9.535802  5.013008  3.207184
  19001.674  19001.700  0.500  0.728943  9.537053  4.600854  2.896984
  19002.561  19002.600  0.500  0.844581  9.540905  4.100085  2.546391
  19003.496  19003.500  0.500  0.993364  9.525081  3.527412  2.168754
  19004.384  19004.400  0.500  1.158512  9.530241  2.992048  1.830709
  19005.288  19005.300  0.500  1.346539  9.524923  2.477805  1.513893
  19006.191  19006.200  0.500  1.542320  9.525147  2.037280  1.247278
  19007.048  19007.100  0.500  1.721751  9.526323  1.702858  1.046514
  19007.968  19008.000  0.500  1.889936  9.528470  1.439576  0.888338
  19008.887  19008.900  0.500  2.022826  9.522625  1.259664  0.779506
  19009.776  19009.800  0.500  2.109131  9.514368  1.154505  0.714554
  19010.616  19010.600  0.500  2.160271  9.517214  1.097277  0.678565
  19013.663  19013.610  0.500  2.234203  9.505499  1.017824  0.625268
  19016.853  19016.800  0.500  2.279674  9.493921  0.971394  0.595582
  19020.219  19020.160  0.500  2.310495  9.488887  0.941413  0.574548
  19023.697  19023.680  0.500  2.342213  9.475374  0.910723  0.549602
  19027.431  19027.380  0.500  2.233476  9.471367  1.014907  0.606520
  19031.278  19031.250  0.500  2.068470  9.461201  1.195697  0.717314
  19035.285  19035.300  0.500  1.939578  9.442822  1.357544  0.830697
  19039.517  19039.510  0.500  1.860451  9.435432  1.468176  0.909172
  19043.909  19043.890  0.500  1.823377  9.421043  1.521305  0.940514
  19048.479  19048.450  0.500  1.786140  9.405800  1.576468  0.971777
  19053.211  19053.180  0.500  1.753798  9.379171  1.623676  1.004028
  19058.136  19058.080  0.500  1.757797  9.383364  1.617921  1.004359
  19063.192  19063.150  0.500  1.786745  9.376135  1.570546  0.969010
  19068.394  19068.390  0.500  1.835190  9.361559  1.493947  0.912411
  19073.822  19073.810  0.500  1.895989  9.347518  1.403715  0.862034
  19079.429  19079.390  0.500  1.944799  9.335421  1.335114  0.828018
  19085.167  19085.150  0.500  1.946687  9.312018  1.329255  0.823817
  19091.037  19091.080  0.500  1.919848  9.294168  1.362797  0.845675
  19097.183  19097.180  0.500  1.886407  9.284823  1.407724  0.872208
  19103.492  19103.450  0.500  1.862626  9.271774  1.439577  0.887238
  19109.919  19109.890  0.500  1.846143  9.285522  1.465671  0.902659
  19116.526  19116.500  0.500  1.831111  9.256865  1.483278  0.920844
  19123.330  19123.290  0.500  1.815219  9.250310  1.505971  0.942645
  19130.283  19130.250  0.500  1.804699  9.236170  1.519571  0.954108
  19137.371  19137.370  0.500  1.805212  9.212861  1.514959  0.950002
  19144.673  19144.670  0.500  1.806691  9.188963  1.508797  0.943435
  19152.205  19152.150  0.500  1.803788  9.172251  1.510430  0.944359
  19159.809  19159.790  0.500  1.799916  9.155128  1.513460  0.941199
  19167.644  19167.600  0.500  1.800651  9.133421  1.508761  0.933341
  19175.598  19175.590  0.500  1.799431  9.110817  1.506865  0.940622
  19183.737  19183.750  0.500  1.791981  9.073726  1.511953  0.956894
  19192.126  19192.070  0.500  1.782193  9.076733  1.527331  0.970054
  19200.586  19200.570  0.500  1.769170  9.045543  1.542033  0.977628
  19209.249  19209.250  0.500  1.758140  9.023893  1.555404  0.982550
  19218.130  19218.090  0.500  1.753466  8.999726  1.558507  0.978469
  19227.149  19227.100  0.500  1.755860  8.976536  1.550774  0.970427
  19236.339  19236.290  0.500  1.760659  8.958057  1.540173  0.964720
  19245.668  19245.650  0.500  1.760458  8.927429  1.535215  0.965979
  19255.218  19255.170  0.500  1.753255  8.905826  1.542572  0.978617
  19264.907  19264.870  0.500  1.745503  8.883607  1.550697  0.988039
  19274.753  19274.750  0.500  1.743029  8.853006  1.549184  0.986128
  19284.806  19284.790  0.500  1.744503  8.827831  1.542503  0.977615
  19295.032  19295.000  0.500  1.742837  8.804248  1.540947  0.973532
  19305.416  19305.390  0.500  1.734811  8.775222  1.548244  0.977897
  19315.992  19315.950  0.500  1.724098  8.749138  1.560267  0.988720
  19326.711  19326.680  0.500  1.715534  8.706673  1.566049  0.994194
  19337.606  19337.580  0.500  1.711272  8.698318  1.571228  1.001194
  19348.726  19348.650  0.500  1.711749  8.664147  1.564309  0.998540
  19359.909  19359.890  0.500  1.710231  8.641455  1.562582  0.998339
  19371.386  19371.310  0.500  1.705234  8.610846  1.564849  0.998651
  19382.925  19382.890  0.500  1.697363  8.579753  1.571519  1.003574
  19394.726  19394.650  0.500  1.691004  8.551837  1.576398  1.006225
  19406.541  19406.580  0.500  1.688313  8.520191  1.574797  1.005043
  19418.752  19418.680  0.500  1.687979  8.486465  1.569087  1.003066
  19430.928  19430.950  0.500  1.684459  8.455676  1.568907  1.004674
  19443.402  19443.390  0.500  1.678821  8.433939  1.573721  1.010145
  19456.041  19456.010  0.500  1.670690  8.394931  1.579231  1.014017
  19468.830  19468.790  0.500  1.663856  8.269527  1.566308  1.006569
  19481.820  19481.750  0.500  1.660098  8.329575  1.583621  1.018270
  19494.977  19494.880  0.500  1.658049  8.302051  1.581627  1.017321
  19508.202  19508.180  0.500  1.654429  8.263112  1.579917  1.017276
  19521.679  19521.650  0.500  1.648662  8.238863  1.584391  1.019638
  19535.359  19535.300  0.500  1.642026  8.199057  1.587235  1.022683
  19549.176  19549.110  0.500  1.637262  8.162986  1.587797  1.026331
  19563.131  19563.100  0.500  1.634681  8.128836  1.585241  1.025874
  19577.307  19577.260  0.500  1.631498  8.093001  1.583285  1.025827
  19591.673  19591.590  0.500  1.626668  8.059018  1.584271  1.026881
  19606.161  19606.090  0.500  1.619995  7.983356  1.579904  1.024355
  19620.839  19620.760  0.500  1.612591  7.991907  1.593350  1.032794
  19635.709  19635.600  0.500  1.607004  7.937774  1.591424  1.033090
  19650.687  19650.620  0.500  1.602658  7.908892  1.592539  1.035270
  19665.823  19665.800  0.500  1.598373  7.867752  1.591058  1.036128
  19681.204  19681.160  0.500  1.592613  7.834829  1.593552  1.039030
  19696.694  19696.690  0.500  1.586915  7.805775  1.596716  1.042390
  19712.431  19712.390  0.500  1.580121  7.764495  1.599098  1.044647
  19728.296  19728.260  0.500  1.575214  7.723748  1.598533  1.044984
  19744.357  19744.310  0.500  1.571181  7.596112  1.578469  1.033348
  19760.530  19760.520  0.500  1.565580  7.650163  1.598629  1.046736
  19776.902  19776.910  0.500  1.560747  7.610747  1.598099  1.047654
  19793.490  19793.470  0.500  1.555017  7.571617  1.599019  1.049949
  19810.245  19810.200  0.500  1.548488  7.551721  1.605262  1.055459
  19827.131  19827.100  0.500  1.542322  7.516518  1.607663  1.057867
  19838.549  19838.460  0.500  1.539098  7.483753  1.605823  1.058068