Folder: webxdiviewer/xdidata/Data/Nd (part 2)

File: Nd-L3-Nd2Zr2O7.xdi
# XDI/1.0 BlueSky/1.10.0 BMM/2023-1.0-py310-tiled
# Beamline.name: BMM (06BM) -- Beamline for Materials Measurement (NIST)
# Beamline.xray_source: NSLS-II three-pole wiggler
# Beamline.collimation: paraboloid mirror, 5 nm Rh on 30 nm Pt
# Beamline.focusing: not in use
# Beamline.harmonic_rejection: flat mirror, Si stripe, pitch = 7.0 mrad relative to beam
# Beamline.software: Bluesky 1.10.0, Ophyd 1.7.0, DataBroker 2.0.0b13, Python 3.10.8, 2023-1.0-py310-tiled
# Detector.I0: 10 cm N2
# Detector.I1: 25 cm N2
# Detector.I2: 25 cm N2
# Element.symbol: Nd
# Element.edge: L3
# Element.reference: Nd
# Element.reference_material: Nd2O3
# Facility.name: NSLS-II
# Facility.energy: 3.0
# Facility.current: 399.1
# Facility.mode: top-off
# Facility.GUP: 123456
# Facility.SAF: 301027
# Facility.cycle: 2023-2
# Mono.name: Si(111)
# Mono.d_spacing: 3.13519
# Mono.encoder_resolution: 0.0000050 deg/ct
# Mono.angle_offset: 16.0754 deg
# Mono.scan_mode: pseudo channel cut
# Mono.scan_type: step
# Mono.direction: forward in energy
# Sample.name: Nd2Zr2O7
# Sample.prep: Powder in PEG pellet
# Sample.x: 149.848 mm
# Sample.y: 114.690 mm
# Sample.SDD_position: 205.000 mm
# Scan.experimenters: Bruce Ravel
# Scan.edge_energy: 6207.9
# Scan.start_time: 2023-05-08T16:43:18
# Scan.end_time: 2023-05-08T16:48:58
# Scan.transient_id: 75412
# Scan.uid: 2f0c6457-a91d-430f-9777-17c49abb5bb3
# Scan.plot_hint: ln(I0/It)  --  ln($5/$6)
# Column.1: energy eV
# Column.2: requested_energy eV
# Column.3: measurement_time seconds
# Column.4: xmu
# Column.5: I0 nA
# Column.6: It nA
# Column.7: Ir nA
# ///////////
# sample courtesy Martin Stennett, University of Sheffield
# -----------
# energy  requested_energy  measurement_time  xmu  I0  It  Ir
  6007.909  6007.900  0.500  2.719971  147.679  9.728603  1.353988
  6027.916  6027.900  0.500  2.687516  148.608  10.1127  1.434283
  6047.914  6047.900  0.500  2.655809  149.085  10.4721  1.514130
  6067.916  6067.900  0.500  2.623960  149.031  10.807  1.591902
  6087.909  6087.900  0.500  2.593153  149.45  11.1765  1.676370
  6107.910  6107.900  0.500  2.562263  149.935  11.5645  1.766484
  6128.206  6127.900  0.500  2.531708  150.302  11.9525  1.858706
  6147.885  6147.900  0.500  2.502243  150.703  12.3427  1.953713
  6167.890  6167.900  0.500  2.473862  150.885  12.7134  2.045840
  6179.894  6179.900  0.500  2.458190  151.205  12.9416  2.100888
  6183.891  6183.900  0.500  2.453341  151.269  13.01  2.117672
  6187.890  6187.900  0.500  2.449209  151.296  13.0662  2.130605
  6191.890  6191.900  0.500  2.446083  151.348  13.1116  2.140924
  6195.893  6195.900  0.500  2.445477  151.384  13.1227  2.140978
  6198.384  6198.400  0.500  2.447175  151.407  13.1024  2.133417
  6199.387  6199.400  0.500  2.448732  151.397  13.0812  2.127171
  6200.384  6200.400  0.500  2.450643  151.397  13.0562  2.118773
  6201.388  6201.400  0.500  2.454440  151.406  13.0075  2.104499
  6202.390  6202.400  0.500  2.458942  151.405  12.9489  2.086751
  6203.390  6203.400  0.500  2.466340  151.412  12.8541  2.058727
  6204.390  6204.400  0.500  2.476946  151.417  12.719  2.019377
  6205.391  6205.400  0.500  2.490314  151.427  12.5508  1.972786
  6206.389  6206.400  0.500  2.507101  151.441  12.3431  1.916819
  6207.391  6207.400  0.500  2.530007  151.441  12.0636  1.844733
  6208.396  6208.400  0.500  2.562845  151.442  11.6739  1.750186
  6209.394  6209.400  0.500  2.619416  151.454  11.0327  1.602916
  6210.397  6210.400  0.500  2.720429  151.459  9.973068  1.367236
  6211.396  6211.400  0.500  2.854570  151.466  8.721515  1.082281
  6212.394  6212.400  0.500  2.991166  151.472  7.608256  0.802255
  6213.397  6213.400  0.500  3.105449  151.478  6.786869  0.589403
  6214.394  6214.400  0.500  3.162283  151.471  6.411633  0.496165
  6215.398  6215.400  0.500  3.158268  151.465  6.437171  0.510953
  6216.398  6216.400  0.500  3.100644  151.471  6.819267  0.607123
  6217.398  6217.400  0.500  3.014558  151.481  7.432788  0.746743
  6218.402  6218.400  0.500  2.924293  151.48  8.134878  0.902029
  6219.402  6219.400  0.500  2.847456  151.506  8.786064  1.045648
  6220.396  6220.400  0.500  2.786593  151.508  9.337597  1.168540
  6221.400  6221.400  0.500  2.739944  151.512  9.783732  1.267540
  6222.400  6222.400  0.500  2.709450  151.509  10.0865  1.332536
  6223.401  6223.400  0.500  2.689792  151.518  10.2873  1.371796
  6224.406  6224.400  0.500  2.677026  151.511  10.419  1.394122
  6225.405  6225.400  0.500  2.667350  151.528  10.5215  1.408858
  6226.400  6226.400  0.500  2.661060  151.53  10.588  1.420712
  6227.404  6227.400  0.500  2.658987  151.532  10.6102  1.428755
  6228.401  6228.400  0.500  2.660356  151.527  10.5953  1.434956
  6229.399  6229.400  0.500  2.663850  151.524  10.5581  1.439155
  6230.402  6230.400  0.500  2.668541  151.527  10.5089  1.439062
  6231.403  6231.400  0.500  2.673492  151.533  10.4574  1.435225
  6232.401  6232.400  0.500  2.676899  151.523  10.4212  1.429816
  6233.897  6233.890  0.500  2.678759  151.532  10.4024  1.418345
  6235.916  6235.910  0.500  2.674921  151.529  10.4422  1.402572
  6238.026  6238.020  0.500  2.672494  151.551  10.4691  1.383241
  6240.213  6240.200  0.500  2.678530  151.576  10.4078  1.354441
  6242.468  6242.460  0.500  2.691072  151.588  10.2789  1.319199
  6244.798  6244.790  0.500  2.704086  151.59  10.1462  1.291158
  6247.206  6247.200  0.500  2.712528  151.595  10.0612  1.280069
  6249.689  6249.680  0.500  2.712540  151.617  10.0625  1.290371
  6252.249  6252.240  0.500  2.700867  151.618  10.1807  1.321511
  6254.889  6254.880  0.500  2.681146  151.607  10.3827  1.368598
  6257.614  6257.600  0.500  2.661274  151.608  10.5912  1.419118
  6260.398  6260.390  0.500  2.646070  151.616  10.754  1.460051
  6263.260  6263.250  0.500  2.637902  151.616  10.8423  1.482998
  6266.205  6266.190  0.500  2.635050  151.649  10.8755  1.491817
  6269.221  6269.210  0.500  2.635132  151.675  10.8765  1.494954
  6272.322  6272.310  0.500  2.634164  151.676  10.8872  1.497555
  6275.491  6275.480  0.500  2.632947  151.684  10.901  1.496437
  6278.740  6278.730  0.500  2.631800  151.708  10.9152  1.493527
  6282.058  6282.050  0.500  2.631025  151.713  10.924  1.489120
  6285.461  6285.450  0.500  2.627870  151.694  10.9572  1.485562
  6288.945  6288.930  0.500  2.621353  151.679  11.0277  1.490907
  6292.493  6292.480  0.500  2.614510  151.683  11.1038  1.504974
  6296.122  6296.110  0.500  2.609624  151.702  11.1596  1.519423
  6299.820  6299.810  0.500  2.606243  151.715  11.1983  1.534010
  6303.601  6303.590  0.500  2.603856  151.674  11.222  1.549468
  6307.460  6307.450  0.500  2.599560  151.656  11.269  1.568660
  6311.392  6311.380  0.500  2.592679  151.642  11.3458  1.591017
  6315.400  6315.390  0.500  2.585440  151.651  11.4289  1.611592
  6319.492  6319.480  0.500  2.578900  151.647  11.5035  1.625663
  6323.650  6323.640  0.500  2.569965  151.597  11.603  1.642793
  6327.891  6327.880  0.500  2.563913  151.585  11.6725  1.656244
  6332.198  6332.190  0.500  2.559333  152.266  11.7787  1.675183
  6336.591  6336.580  0.500  2.555696  152.225  11.8185  1.685372
  6341.061  6341.050  0.500  2.550367  152.218  11.8811  1.697942
  6345.597  6345.590  0.500  2.544553  152.191  11.9482  1.710428
  6350.222  6350.210  0.500  2.539276  152.164  12.0093  1.720452
  6354.915  6354.900  0.500  2.535294  152.123  12.054  1.728054
  6359.676  6359.670  0.500  2.529236  152.094  12.1249  1.744708
  6364.527  6364.520  0.500  2.520534  152.071  12.2291  1.769494
  6369.460  6369.450  0.500  2.513322  152.06  12.3167  1.794461
  6374.462  6374.450  0.500  2.505937  152.008  12.4038  1.820391
  6379.528  6379.520  0.500  2.497632  151.974  12.5044  1.846860
  6384.677  6384.670  0.500  2.491038  151.916  12.5823  1.866066
  6389.906  6389.900  0.500  2.485326  151.859  12.6496  1.883109
  6395.218  6395.210  0.500  2.479489  151.812  12.7197  1.899181
  6400.597  6400.590  0.500  2.473334  151.749  12.793  1.915822
  6406.057  6406.050  0.500  2.465585  151.667  12.8855  1.936997
  6411.585  6411.580  0.500  2.457602  151.62  12.9848  1.960993
  6417.192  6417.190  0.500  2.450754  151.55  13.0679  1.981913
  6422.875  6422.870  0.500  2.442513  151.441  13.1666  2.005474
  6428.646  6428.640  0.500  2.434121  151.321  13.267  2.029124
  6434.476  6434.470  0.500  2.425993  151.164  13.3614  2.052404
  6440.397  6440.390  0.500  2.418521  151.101  13.456  2.074283
  6446.388  6446.380  0.500  2.411957  151.019  13.5373  2.094351
  6452.460  6452.450  0.500  2.405106  150.861  13.6161  2.116914
  6458.596  6458.590  0.500  2.397882  148.238  13.4763  2.107153
  6464.817  6464.810  0.500  2.390040  148.101  13.5699  2.135926
  6471.104  6471.100  0.500  2.381158  150.464  13.9094  2.202635
  6477.475  6477.470  0.500  2.372813  150.273  14.0082  2.229555
  6483.927  6483.920  0.500  2.364367  150.182  14.1184  2.256715
  6490.465  6490.450  0.500  2.356633  150.051  14.2156  2.281110
  6497.061  6497.050  0.500  2.348767  149.907  14.3142  2.306651
  6503.734  6503.720  0.500  2.340450  149.761  14.4196  2.333620
  6510.476  6510.470  0.500  2.332321  149.582  14.52  2.363644
  6517.315  6517.300  0.500  2.323146  149.408  14.6367  2.396043
  6524.238  6524.210  0.500  2.313930  149.225  14.7541  2.428451
  6531.202  6531.190  0.500  2.305232  149.022  14.8628  2.458949
  6538.265  6538.250  0.500  2.296276  148.789  14.9731  2.490134
  6545.393  6545.380  0.500  2.287968  148.57  15.0757  2.519207
  6552.610  6552.590  0.500  2.279201  148.304  15.1813  2.549708
  6559.897  6559.880  0.500  2.270476  148.072  15.2903  2.581631
  6567.242  6567.240  0.500  2.261237  147.853  15.4094  2.617668
  6574.705  6574.680  0.500  2.251940  147.656  15.5327  2.655702
  6582.187  6582.190  0.500  2.243204  147.419  15.6438  2.690601
  6589.766  6589.780  0.500  2.233540  147.18  15.7701  2.727102
  6597.458  6597.450  0.500  2.224595  146.963  15.8884  2.762773
  6605.196  6605.190  0.500  2.215013  146.683  16.0108  2.799723
  6613.025  6613.010  0.500  2.205909  146.468  16.1335  2.835972
  6620.921  6620.910  0.500  2.196538  146.207  16.2564  2.873222
  6628.895  6628.880  0.500  2.187347  145.942  16.3768  2.911588
  6636.918  6636.930  0.500  2.177242  145.777  16.5244  2.955674
  6645.079  6645.050  0.500  2.167235  145.542  16.6637  3.000087
  6653.269  6653.250  0.500  2.157214  145.316  16.8053  3.043810
  6661.517  6661.530  0.500  2.147427  145.08  16.9431  3.086125
  6669.862  6669.880  0.500  2.137462  144.812  17.0811  3.130513
  6678.313  6678.310  0.500  2.127753  144.559  17.2176  3.175233
  6686.794  6686.810  0.500  2.118428  144.331  17.3515  3.219766
  6695.396  6695.390  0.500  2.109188  144.048  17.4783  3.262751
  6699.688  6699.710  0.500  2.104158  143.879  17.5458  3.284355

File: Nd-L3-Nd-hydroxide.xdi
# XDI/1.0 BlueSky/1.10.0 BMM/2023-1.0-py310-tiled
# Beamline.name: BMM (06BM) -- Beamline for Materials Measurement (NIST)
# Beamline.xray_source: NSLS-II three-pole wiggler
# Beamline.collimation: paraboloid mirror, 5 nm Rh on 30 nm Pt
# Beamline.focusing: not in use
# Beamline.harmonic_rejection: flat mirror, Si stripe, pitch = 7.0 mrad relative to beam
# Beamline.software: Bluesky 1.10.0, Ophyd 1.7.0, DataBroker 2.0.0b13, Python 3.10.8, 2023-1.0-py310-tiled
# Detector.I0: 10 cm N2
# Detector.I1: 25 cm N2
# Detector.I2: 25 cm N2
# Element.symbol: Nd
# Element.edge: L3
# Element.reference: Nd
# Element.reference_material: Nd2O3
# Facility.name: NSLS-II
# Facility.energy: 3.0
# Facility.current: 399.6
# Facility.mode: top-off
# Facility.GUP: 123456
# Facility.SAF: 301027
# Facility.cycle: 2023-2
# Mono.name: Si(111)
# Mono.d_spacing: 3.13519
# Mono.encoder_resolution: 0.0000050 deg/ct
# Mono.angle_offset: 16.0754 deg
# Mono.scan_mode: pseudo channel cut
# Mono.scan_type: step
# Mono.direction: forward in energy
# Sample.name: Nd(OH)3
# Sample.prep: Powder in PEG pellet
# Sample.x: 149.848 mm
# Sample.y: 114.690 mm
# Sample.SDD_position: 205.000 mm
# Scan.experimenters: Bruce Ravel
# Scan.edge_energy: 6207.9
# Scan.start_time: 2023-05-08T16:55:58
# Scan.end_time: 2023-05-08T17:01:38
# Scan.transient_id: 75422
# Scan.uid: 4084e6b8-60f4-4115-ac8a-853f14113207
# Scan.plot_hint: ln(I0/It)  --  ln($5/$6)
# Column.1: energy eV
# Column.2: requested_energy eV
# Column.3: measurement_time seconds
# Column.4: xmu
# Column.5: I0 nA
# Column.6: It nA
# Column.7: Ir nA
# ///////////
# sample courtesy Martin Stennett, University of Sheffield
# -----------
# energy  requested_energy  measurement_time  xmu  I0  It  Ir
  6007.902  6007.900  0.500  2.535321  147.948  11.7228  1.625037
  6027.914  6027.900  0.500  2.503119  148.311  12.1362  1.714258
  6047.913  6047.900  0.500  2.472833  148.788  12.5496  1.806529
  6067.913  6067.900  0.500  2.441536  148.732  12.9437  1.899315
  6087.913  6087.900  0.500  2.411587  149.137  13.3735  1.999229
  6107.910  6107.900  0.500  2.381762  149.606  13.8217  2.104529
  6127.976  6127.900  0.500  2.352236  150.059  14.279  2.213197
  6147.885  6147.900  0.500  2.324003  150.449  14.7261  2.322926
  6167.897  6167.900  0.500  2.298181  150.658  15.1323  2.427405
  6179.891  6179.900  0.500  2.285734  150.966  15.3532  2.484685
  6183.886  6183.900  0.500  2.283263  151.029  15.3976  2.498661
  6187.890  6187.900  0.500  2.281710  151.06  15.4247  2.507654
  6191.886  6191.900  0.500  2.282843  151.651  15.4674  2.517637
  6195.893  6195.900  0.500  2.288879  151.704  15.3798  2.502860
  6198.388  6198.400  0.500  2.298137  151.712  15.2388  2.475215
  6199.389  6199.400  0.500  2.303618  151.703  15.1546  2.457720
  6200.387  6200.400  0.500  2.310684  151.723  15.0499  2.436218
  6201.388  6201.400  0.500  2.320292  151.717  14.9054  2.406852
  6202.390  6202.400  0.500  2.333852  151.718  14.7048  2.364259
  6203.390  6203.400  0.500  2.353135  151.709  14.4231  2.305787
  6204.390  6204.400  0.500  2.380030  151.719  14.0413  2.225941
  6205.391  6205.400  0.500  2.412689  151.715  13.5897  2.132541
  6206.390  6206.400  0.500  2.451199  151.72  13.0768  2.027822
  6207.388  6207.400  0.500  2.499799  151.734  12.4576  1.903000
  6208.394  6208.400  0.500  2.562525  151.742  11.7008  1.752657
  6209.394  6209.400  0.500  2.664674  151.76  10.5659  1.534601
  6210.397  6210.400  0.500  2.850430  151.761  8.774749  1.205310
  6211.401  6211.400  0.500  3.178431  151.769  6.321319  0.788857
  6212.394  6212.400  0.500  3.705167  151.791  3.733461  0.399558
  6213.394  6213.400  0.500  4.336849  151.798  1.985163  0.175049
  6214.399  6214.400  0.500  4.710003  151.79  1.366835  0.106764
  6215.396  6215.400  0.500  4.628487  151.78  1.482815  0.118290
  6216.400  6216.400  0.500  4.257786  151.785  2.148303  0.191771
  6217.401  6217.400  0.500  3.867143  151.798  3.175328  0.319205
  6218.397  6218.400  0.500  3.548014  151.791  4.368817  0.483508
  6219.404  6219.400  0.500  3.317602  151.811  5.501584  0.653780
  6220.398  6220.400  0.500  3.156671  151.807  6.462015  0.807106
  6221.400  6221.400  0.500  3.047288  151.807  7.208949  0.932023
  6222.403  6222.400  0.500  2.984578  151.813  7.675782  1.012283
  6223.401  6223.400  0.500  2.955699  151.813  7.900702  1.051913
  6224.403  6224.400  0.500  2.946393  151.822  7.975043  1.064705
  6225.404  6225.400  0.500  2.943301  151.806  7.998907  1.069439
  6226.403  6226.400  0.500  2.937954  151.826  8.042846  1.077354
  6227.401  6227.400  0.500  2.927200  151.846  8.130857  1.093232
  6228.402  6228.400  0.500  2.910778  151.854  8.265912  1.117453
  6229.401  6229.400  0.500  2.893856  151.843  8.406390  1.143275
  6230.397  6230.400  0.500  2.880328  151.833  8.520324  1.164300
  6231.401  6231.400  0.500  2.874266  151.843  8.572703  1.173905
  6232.399  6232.400  0.500  2.876242  151.854  8.556409  1.171392
  6233.898  6233.890  0.500  2.896448  151.851  8.385078  1.141608
  6235.913  6235.910  0.500  2.946603  151.844  7.974509  1.069597
  6238.034  6238.020  0.500  3.001153  151.87  7.552429  0.996784
  6240.213  6240.200  0.500  3.053473  151.887  7.168245  0.931784
  6242.468  6242.460  0.500  3.101295  151.904  6.834312  0.875997
  6244.798  6244.790  0.500  3.131662  151.897  6.629598  0.842965
  6247.211  6247.200  0.500  3.134215  151.905  6.613014  0.840386
  6249.692  6249.680  0.500  3.112687  151.92  6.757587  0.865159
  6252.249  6252.240  0.500  3.076696  151.922  7.005348  0.908416
  6254.893  6254.880  0.500  3.031102  151.92  7.332040  0.964753
  6257.612  6257.600  0.500  2.982215  151.928  7.699798  1.030268
  6260.404  6260.390  0.500  2.943846  151.937  8.001416  1.084544
  6263.260  6263.250  0.500  2.923726  151.948  8.164621  1.115162
  6266.202  6266.190  0.500  2.917524  151.973  8.216803  1.125680
  6269.224  6269.210  0.500  2.915458  151.997  8.235090  1.129650
  6272.324  6272.310  0.500  2.916893  151.985  8.222602  1.129345
  6275.492  6275.480  0.500  2.927002  152.007  8.141072  1.115609
  6278.744  6278.730  0.500  2.940745  152.022  8.030772  1.097603
  6282.062  6282.050  0.500  2.956831  152.034  7.903242  1.075982
  6285.457  6285.450  0.500  2.977101  152.004  7.743132  1.048352
  6288.937  6288.930  0.500  2.989314  151.998  7.648830  1.032864
  6292.493  6292.480  0.500  2.986351  152.007  7.671971  1.038187
  6296.119  6296.110  0.500  2.976886  152.017  7.745465  1.052614
  6299.817  6299.810  0.500  2.962744  152.02  7.855923  1.074527
  6303.599  6303.590  0.500  2.940972  151.991  8.027301  1.107203
  6307.463  6307.450  0.500  2.920925  151.965  8.188470  1.137917
  6311.387  6311.380  0.500  2.901567  151.982  8.349422  1.169684
  6315.402  6315.390  0.500  2.888686  151.98  8.457560  1.191602
  6319.487  6319.480  0.500  2.885683  151.962  8.482026  1.197736
  6323.652  6323.640  0.500  2.884116  151.935  8.493812  1.200996
  6327.884  6327.880  0.500  2.883141  151.916  8.501016  1.204609
  6332.205  6332.190  0.500  2.879530  151.893  8.530470  1.211999
  6336.593  6336.580  0.500  2.877290  151.873  8.548488  1.217361
  6341.059  6341.050  0.500  2.876572  151.848  8.553196  1.220548
  6345.602  6345.590  0.500  2.874518  151.816  8.569005  1.225593
  6350.222  6350.210  0.500  2.878081  151.784  8.536721  1.221401
  6354.909  6354.900  0.500  2.880610  151.747  8.513073  1.218689
  6359.679  6359.670  0.500  2.874103  151.705  8.566315  1.231101
  6364.530  6364.520  0.500  2.861892  151.694  8.670925  1.253425
  6369.460  6369.450  0.500  2.846132  151.662  8.806767  1.281243
  6374.453  6374.450  0.500  2.828916  151.622  8.957358  1.313133
  6379.529  6379.520  0.500  2.815102  151.582  9.079534  1.338902
  6384.681  6384.670  0.500  2.807300  151.531  9.147622  1.355208
  6389.911  6389.900  0.500  2.800935  151.483  9.203091  1.367932
  6395.221  6395.210  0.500  2.796909  151.431  9.237011  1.377220
  6400.599  6400.590  0.500  2.793022  151.39  9.270485  1.386781
  6406.062  6406.050  0.500  2.785998  151.301  9.330383  1.400818
  6411.588  6411.580  0.500  2.778288  151.259  9.399932  1.417887
  6417.197  6417.190  0.500  2.770755  151.778  9.503534  1.439460
  6422.877  6422.870  0.500  2.763271  151.668  9.567980  1.455428
  6428.648  6428.640  0.500  2.755517  151.56  9.635597  1.472434
  6434.478  6434.470  0.500  2.749049  151.379  9.686534  1.485969
  6440.395  6440.390  0.500  2.743604  151.324  9.735899  1.499188
  6446.386  6446.380  0.500  2.737674  151.213  9.786601  1.512694
  6452.458  6452.450  0.500  2.729689  151.024  9.852742  1.529947
  6458.600  6458.590  0.500  2.717527  148.366  9.797802  1.530289
  6464.819  6464.810  0.500  2.703688  148.277  9.928330  1.561089
  6471.111  6471.100  0.500  2.692428  150.647  10.2013  1.613330
  6477.479  6477.470  0.500  2.682580  150.456  10.2891  1.635405
  6483.927  6483.920  0.500  2.675134  150.374  10.3604  1.654051
  6490.462  6490.450  0.500  2.668651  150.262  10.42  1.670267
  6497.054  6497.050  0.500  2.662688  150.119  10.4724  1.685471
  6503.729  6503.720  0.500  2.655325  149.973  10.5395  1.704495
  6510.480  6510.470  0.500  2.644431  149.782  10.6414  1.730387
  6517.324  6517.300  0.500  2.633697  149.625  10.745  1.757044
  6524.227  6524.210  0.500  2.623232  149.437  10.8443  1.783093
  6531.219  6531.190  0.500  2.614310  149.246  10.9276  1.806172
  6538.265  6538.250  0.500  2.605378  149.032  11.0098  1.828761
  6545.375  6545.380  0.500  2.596585  148.781  11.0883  1.851248
  6552.592  6552.590  0.500  2.587479  148.516  11.1698  1.874273
  6559.879  6559.880  0.500  2.577924  148.279  11.259  1.899417
  6567.256  6567.240  0.500  2.566164  148.069  11.3761  1.931080
  6574.700  6574.680  0.500  2.553429  147.854  11.5052  1.965621
  6582.214  6582.190  0.500  2.542167  147.616  11.6167  1.996135
  6589.772  6589.780  0.500  2.532124  147.331  11.7113  2.023098
  6597.469  6597.450  0.500  2.522089  147.088  11.8099  2.052146
  6605.212  6605.190  0.500  2.512026  146.801  11.9061  2.080292
  6613.019  6613.010  0.500  2.502398  146.594  12.0044  2.108351
  6620.919  6620.910  0.500  2.492914  146.3  12.0944  2.135966
  6628.896  6628.880  0.500  2.482480  145.993  12.1957  2.166161
  6636.924  6636.930  0.500  2.470979  145.816  12.3218  2.202081
  6645.038  6645.050  0.500  2.458378  145.55  12.4553  2.239980
  6653.265  6653.250  0.500  2.446842  145.299  12.578  2.275806
  6661.522  6661.530  0.500  2.436383  145.026  12.6864  2.308790
  6669.867  6669.880  0.500  2.425504  144.778  12.8032  2.344318
  6678.290  6678.310  0.500  2.413759  144.486  12.9283  2.381958
  6686.798  6686.810  0.500  2.401657  144.238  13.0633  2.422332
  6695.373  6695.390  0.500  2.391180  143.944  13.174  2.457018
  6699.688  6699.710  0.500  2.386037  143.794  13.2281  2.474420