Folder: webxdiviewer/xdidata/Data/Ni (part 2)

File: Ni-K-NickelHydroxide.xdi
# XDI/1.0 BlueSky/1.10.0 BMM/2023-1.0-py310-tiled
# Beamline.name: BMM (06BM) -- Beamline for Materials Measurement (NIST)
# Beamline.xray_source: NSLS-II three-pole wiggler
# Beamline.collimation: paraboloid mirror, 5 nm Rh on 30 nm Pt
# Beamline.focusing: not in use
# Beamline.harmonic_rejection: flat mirror, Pt stripe, pitch = 7.0 mrad relative to beam
# Beamline.software: Bluesky 1.10.0, Ophyd 1.7.0, DataBroker 2.0.0b13, Python 3.10.8, 2023-1.0-py310-tiled
# Detector.I0: 10 cm N2
# Detector.I1: 25 cm N2
# Detector.I2: 25 cm N2
# Element.symbol: Ni
# Element.edge: K
# Element.reference: Ni
# Element.reference_material: Ni foil
# Facility.name: NSLS-II
# Facility.energy: 3.0
# Facility.current: 399.6
# Facility.mode: top-off
# Facility.GUP: 301027
# Facility.SAF: 310583
# Facility.cycle: 2023-2
# Mono.name: Si(111)
# Mono.d_spacing: 3.13519
# Mono.encoder_resolution: 0.0000050 deg/ct
# Mono.angle_offset: 16.0754 deg
# Mono.scan_mode: pseudo channel cut
# Mono.scan_type: step
# Mono.direction: forward in energy
# Sample.name: Ni(OH)2
# Sample.prep: powder on tape
# Sample.x: 117.785 mm
# Sample.y: 114.695 mm
# Sample.SDD_position: 205.000 mm
# Scan.experimenters: Bruce Ravel
# Scan.edge_energy: 8332.8
# Scan.start_time: 2023-06-23T15:33:06
# Scan.end_time: 2023-06-23T15:41:24
# Scan.transient_id: 84850
# Scan.uid: 1ef347fd-dc43-4930-97ee-f357c3e4ee12
# Scan.plot_hint: ln(I0/It)  --  ln($5/$6)
# Column.1: energy eV
# Column.2: requested_energy eV
# Column.3: measurement_time seconds
# Column.4: xmu
# Column.5: I0 nA
# Column.6: It nA
# Column.7: Ir nA
# ///////////
# BMM standards collection
# -----------
# energy  requested_energy  measurement_time  xmu  I0  It  Ir
  8132.807  8132.800  0.500  0.831370  134.029  58.3631  22.4313
  8162.867  8162.800  0.500  0.812077  133.382  59.2128  22.9962
  8192.914  8192.800  0.500  0.794925  132.766  59.959  23.5255
  8222.801  8222.800  0.500  0.775848  132.421  60.9551  24.157
  8252.817  8252.800  0.500  0.759970  131.794  61.6377  24.6651
  8282.819  8282.800  0.500  0.745290  131.141  62.239  25.1288
  8304.793  8304.800  0.500  0.734093  130.595  62.6778  25.4383
  8310.790  8310.800  0.500  0.730704  130.501  62.8455  25.525
  8316.796  8316.800  0.500  0.727663  130.32  62.9495  25.5595
  8322.790  8322.800  0.500  0.724827  130.198  63.069  25.5442
  8323.672  8323.700  0.500  0.723227  130.166  63.1547  25.5575
  8324.572  8324.600  0.500  0.721627  130.16  63.2528  25.5736
  8325.487  8325.500  0.500  0.720417  130.132  63.3154  25.5648
  8326.391  8326.400  0.500  0.719878  130.107  63.3376  25.5268
  8327.288  8327.300  0.500  0.719180  130.059  63.3584  25.4753
  8328.180  8328.200  0.500  0.718400  129.971  63.3652  25.3948
  8329.081  8329.100  0.500  0.717678  130.005  63.4272  25.2946
  8329.986  8330.000  0.500  0.717207  129.963  63.4366  25.0752
  8330.890  8330.900  0.500  0.717326  129.866  63.3817  24.5916
  8331.801  8331.800  0.500  0.718247  129.91  63.3449  23.4525
  8332.688  8332.700  0.500  0.721550  129.838  63.101  21.5421
  8333.587  8333.600  0.500  0.720076  129.736  63.1446  19.818
  8334.495  8334.500  0.500  0.716922  129.634  63.2942  18.6076
  8335.395  8335.400  0.500  0.716996  129.568  63.2575  17.821
  8336.294  8336.300  0.500  0.717705  129.492  63.1753  17.3642
  8337.197  8337.200  0.500  0.720360  129.536  63.0293  17.0061
  8338.106  8338.100  0.500  0.727941  129.491  62.5313  16.4253
  8338.998  8339.000  0.500  0.739411  129.424  61.7861  15.6444
  8339.895  8339.900  0.500  0.753641  129.392  60.8985  14.9221
  8340.799  8340.800  0.500  0.776154  129.399  59.5459  14.1777
  8341.703  8341.700  0.500  0.809046  129.316  57.582  13.2503
  8342.601  8342.600  0.500  0.844511  129.282  55.561  12.2182
  8343.496  8343.500  0.500  0.874960  129.216  53.8673  11.1849
  8344.398  8344.400  0.500  0.912012  129.187  51.8964  10.0707
  8345.300  8345.300  0.500  0.967396  129.112  49.0719  8.854010
  8346.193  8346.200  0.500  1.043798  129.089  45.4541  7.642544
  8347.104  8347.100  0.500  1.137305  129.057  41.3862  6.511026
  8348.000  8348.000  0.500  1.202565  128.985  38.7501  5.798165
  8348.899  8348.900  0.500  1.218497  128.937  38.1232  5.561630
  8349.790  8349.800  0.500  1.220027  128.87  38.0454  5.512371
  8350.684  8350.700  0.500  1.219343  128.754  38.0371  5.537882
  8351.596  8351.600  0.500  1.199242  128.62  38.7689  5.710649
  8352.491  8352.500  0.500  1.162810  128.636  40.2123  5.993488
  8353.388  8353.400  0.500  1.117433  128.51  42.038  6.307325
  8354.295  8354.300  0.500  1.075440  128.466  43.8259  6.542982
  8355.172  8355.200  0.500  1.042396  128.413  45.2795  6.647256
  8356.076  8356.100  0.500  1.014795  128.32  46.5129  6.654473
  8357.013  8357.000  0.500  0.993755  128.311  47.4988  6.628147
  8357.801  8357.800  0.500  0.979074  128.281  48.1897  6.657912
  8360.821  8360.810  0.500  0.954701  128.248  49.3662  7.026146
  8364.015  8364.000  0.500  0.972165  128.267  48.5187  7.182944
  8367.373  8367.360  0.500  0.953944  128.461  49.4856  7.590323
  8370.891  8370.880  0.500  0.926335  128.423  50.856  7.834429
  8374.589  8374.580  0.500  0.905215  128.325  51.9017  7.691521
  8378.462  8378.450  0.500  0.912215  128.275  51.5194  7.130064
  8382.507  8382.500  0.500  0.935756  128.181  50.2839  6.655257
  8386.725  8386.710  0.500  0.962861  128.019  48.8777  6.778986
  8391.102  8391.090  0.500  0.985361  127.821  47.7161  7.134507
  8395.655  8395.650  0.500  0.995636  127.767  47.2085  7.333046
  8400.387  8400.380  0.500  0.986142  127.619  47.6037  7.409091
  8405.293  8405.280  0.500  0.968777  127.491  48.389  7.579172
  8410.363  8410.350  0.500  0.957472  127.372  48.8932  7.504300
  8415.607  8415.590  0.500  0.948619  127.242  49.2776  7.393838
  8421.025  8421.010  0.500  0.939921  127.129  49.6639  7.188823
  8426.599  8426.590  0.500  0.929247  126.977  50.1368  6.935208
  8432.360  8432.350  0.500  0.924772  126.789  50.2875  6.750016
  8438.292  8438.280  0.500  0.924644  126.656  50.2408  7.030581
  8444.395  8444.380  0.500  0.920401  126.524  50.4021  7.521960
  8450.668  8450.650  0.500  0.912826  126.326  50.7058  7.903345
  8457.099  8457.090  0.500  0.909886  126.175  50.7941  8.395969
  8463.715  8463.700  0.500  0.919104  126.018  50.2655  8.294951
  8470.505  8470.490  0.500  0.920974  125.785  50.0787  7.893997
  8477.461  8477.450  0.500  0.919826  125.621  50.0712  7.768975
  8484.586  8484.570  0.500  0.917394  125.468  50.132  7.789264
  8491.890  8491.870  0.500  0.907482  125.269  50.551  7.226869
  8499.356  8499.350  0.500  0.893776  125.062  51.1637  7.095313
  8507.012  8506.990  0.500  0.881804  124.803  51.6728  7.394024
  8514.814  8514.800  0.500  0.880125  124.626  51.6865  8.188939
  8522.811  8522.790  0.500  0.880521  124.228  51.5008  9.015144
  8530.970  8530.950  0.500  0.872802  108.659  45.3954  7.765905
  8539.290  8539.270  0.500  0.873340  124.298  51.9014  8.347408
  8547.780  8547.770  0.500  0.869623  124.016  51.9762  8.281046
  8556.476  8556.450  0.500  0.860658  123.788  52.3478  8.488359
  8565.310  8565.290  0.500  0.854900  123.579  52.5613  8.671243
  8574.314  8574.300  0.500  0.853707  123.339  52.522  8.254281
  8583.496  8583.490  0.500  0.849143  123.102  52.6605  8.109291
  8592.863  8592.850  0.500  0.837287  113.232  49.0161  7.840238
  8602.387  8602.370  0.500  0.841159  122.081  52.6425  8.998928
  8612.080  8612.070  0.500  0.835311  121.128  52.5381  9.175847
  8621.962  8621.950  0.500  0.825132  123.347  54.0479  9.445019
  8632.014  8631.990  0.500  0.816821  122.436  54.0965  9.462109
  8642.215  8642.200  0.500  0.812506  120.388  53.4217  9.230019
  8652.606  8652.590  0.500  0.808437  121.383  54.0825  9.282587
  8663.167  8663.150  0.500  0.803601  121.176  54.2522  9.247227
  8673.900  8673.880  0.500  0.800669  120.842  54.2617  9.228039
  8684.809  8684.780  0.500  0.795889  120.578  54.4022  9.510022
  8695.867  8695.850  0.500  0.789311  120.167  54.5749  9.757943
  8707.117  8707.090  0.500  0.778215  113.974  52.3395  9.406418
  8718.557  8718.510  0.500  0.776876  119.923  55.1456  10.1673
  8730.120  8730.090  0.500  0.771248  119.473  55.2485  10.2291
  8741.878  8741.850  0.500  0.765308  119.131  55.4186  10.2612
  8753.811  8753.780  0.500  0.759782  118.754  55.5493  10.2589
  8765.902  8765.880  0.500  0.754419  118.388  55.676  10.2653
  8778.171  8778.150  0.500  0.747819  117.976  55.8496  10.3149
  8790.614  8790.590  0.500  0.740800  117.668  56.0963  10.5242
  8803.237  8803.210  0.500  0.734791  117.282  56.2491  10.7333
  8816.011  8815.990  0.500  0.729207  116.854  56.3577  10.8069
  8828.974  8828.950  0.500  0.724238  116.482  56.4581  10.9384
  8842.097  8842.080  0.500  0.718180  116.097  56.6132  11.1059
  8855.402  8855.380  0.500  0.713062  116.151  56.9305  11.273
  8868.870  8868.850  0.500  0.706425  115.779  57.1258  11.3597
  8882.516  8882.500  0.500  0.699898  115.359  57.2913  11.3836
  8896.334  8896.310  0.500  0.693249  114.93  57.4592  11.4126
  8910.320  8910.300  0.500  0.687468  113.965  57.3072  11.5324
  8924.494  8924.460  0.500  0.681699  112.225  56.7586  11.5749
  8938.808  8938.790  0.500  0.674873  113.713  57.9049  11.9103
  8953.314  8953.290  0.500  0.670414  113.033  57.8162  11.9859
  8967.983  8967.960  0.500  0.663700  112.831  58.1017  12.1537
  8982.822  8982.800  0.500  0.657360  112.096  58.0901  12.2587
  8997.838  8997.820  0.500  0.651245  111.919  58.3539  12.3889
  9013.024  9013.000  0.500  0.644959  111.406  58.4527  12.4735
  9028.371  9028.360  0.500  0.637814  110.993  58.6538  12.5863
  9043.903  9043.890  0.500  0.632227  110.517  58.7297  12.701
  9059.623  9059.590  0.500  0.625436  110.068  58.8892  12.853
  9075.510  9075.460  0.500  0.618671  109.549  59.0099  12.9902
  9091.568  9091.510  0.500  0.612526  109.056  59.1064  13.1261
  9107.745  9107.720  0.500  0.606162  108.571  59.2188  13.2628
  9124.071  9124.110  0.500  0.599441  108.106  59.363  13.409
  9140.644  9140.670  0.500  0.593213  107.449  59.3709  13.5074
  9157.369  9157.400  0.500  0.585644  106.08  59.0594  13.5158
  9174.273  9174.300  0.500  0.580353  106.502  59.6095  13.7422
  9185.627  9185.660  0.500  0.576314  106.458  59.8256  13.8673