Folder: webxdiviewer/xdidata/Data/Pb

Note: xdidata/README.md
# bmm-standards
A pretty webpage for BMM's collection of common XAFS materials

[BMM's common materials collection](./BMM-standards.html)

Plotting of the data will happen soon.

Periodic table adapted from [some guy named Daniel](https://codepen.io/gooseofmusic/pen/PjKdNQ)

[This](https://www.coderstool.com/scss-to-css) is a helpful tool for
dealing with Sassy CSS.

File: Pb-L3-LeadFoil.xdi
# XDI/1.0 BlueSky/1.10.0 BMM/2023-1.0-py310-tiled
# Beamline.name: BMM (06BM) -- Beamline for Materials Measurement (NIST)
# Beamline.xray_source: NSLS-II three-pole wiggler
# Beamline.collimation: paraboloid mirror, 5 nm Rh on 30 nm Pt
# Beamline.focusing: not in use
# Beamline.harmonic_rejection: flat mirror, Pt stripe, pitch = 7.0 mrad relative to beam
# Beamline.software: Bluesky 1.10.0, Ophyd 1.7.0, DataBroker 2.0.0b13, Python 3.10.8, 2023-1.0-py310-tiled
# Detector.I0: 10 cm N2
# Detector.I1: 25 cm N2
# Detector.I2: 25 cm N2
# Element.symbol: Pb
# Element.edge: L3
# Element.reference: Pb
# Element.reference_material: Pb foil
# Facility.name: NSLS-II
# Facility.energy: 3.0
# Facility.current: 399.9
# Facility.mode: top-off
# Facility.GUP: 301027
# Facility.SAF: 310583
# Facility.cycle: 2023-2
# Mono.name: Si(111)
# Mono.d_spacing: 3.13519
# Mono.encoder_resolution: 0.0000050 deg/ct
# Mono.angle_offset: 16.0754 deg
# Mono.scan_mode: pseudo channel cut
# Mono.scan_type: step
# Mono.direction: forward in energy
# Sample.name: Pb foil
# Sample.prep: reference foil
# Sample.x: 109.138 mm
# Sample.y: 153.150 mm
# Sample.SDD_position: 205.000 mm
# Scan.experimenters: Bruce Ravel
# Scan.edge_energy: 13035.2
# Scan.start_time: 2023-05-28T20:23:31
# Scan.end_time: 2023-05-28T20:31:20
# Scan.transient_id: 78987
# Scan.uid: dbc34b1c-5c40-4b98-8fd3-b3d47b5f4ea1
# Scan.plot_hint: ln(It/Ir)  --  ln($6/$7)
# Column.1: energy eV
# Column.2: requested_energy eV
# Column.3: measurement_time seconds
# Column.4: xmu
# Column.5: I0 nA
# Column.6: It nA
# Column.7: Ir nA
# ///////////
# standard reference foil
# -----------
# energy  requested_energy  measurement_time  xmu  I0  It  Ir
  12835.176  12835.200  0.500  0.837345  48.9078  85.1599  36.8621
  12865.261  12865.200  0.500  0.831991  48.6269  84.7285  36.8723
  12895.222  12895.200  0.500  0.826850  48.2972  84.2325  36.8454
  12925.229  12925.200  0.500  0.821898  47.9345  83.6631  36.778
  12955.231  12955.200  0.500  0.817623  47.3791  82.7616  36.5376
  12985.243  12985.200  0.500  0.814991  47.3351  82.7389  36.6238
  13007.176  13007.200  0.500  0.817518  47.0933  82.366  36.3668
  13013.179  13013.200  0.500  0.820322  47.0564  82.3124  36.2413
  13019.180  13019.200  0.500  0.825658  46.9713  82.1805  35.9907
  13025.179  13025.200  0.500  0.836567  46.8995  82.0652  35.5502
  13026.045  13026.100  0.500  0.839188  46.885  82.0414  35.4469
  13026.948  13027.000  0.500  0.842311  46.8792  82.0402  35.3359
  13027.874  13027.900  0.500  0.845871  46.8667  82.0106  35.1976
  13028.762  13028.800  0.500  0.850085  46.8495  81.9841  35.0382
  13029.658  13029.700  0.500  0.855240  46.8302  81.9604  34.848
  13030.554  13030.600  0.500  0.861634  46.8215  81.9419  34.6181
  13031.473  13031.500  0.500  0.869895  46.8146  81.932  34.3291
  13032.399  13032.400  0.500  0.880325  46.7914  81.8863  33.954
  13033.295  13033.300  0.500  0.893766  46.7839  81.8802  33.4982
  13034.192  13034.200  0.500  0.910854  46.7792  81.8617  32.9232
  13035.082  13035.100  0.500  0.931284  46.7654  81.8641  32.2583
  13035.971  13036.000  0.500  0.955240  46.7464  81.8162  31.4763
  13036.876  13036.900  0.500  0.981963  46.8697  82.04  30.7301
  13037.780  13037.800  0.500  1.010351  46.8671  82.0377  29.8692
  13038.700  13038.700  0.500  1.040495  46.8584  82.0251  28.9778
  13039.575  13039.600  0.500  1.071637  46.8554  82.0216  28.0881
  13040.495  13040.500  0.500  1.107885  46.8425  82.0041  27.0824
  13041.430  13041.400  0.500  1.148811  46.8355  81.9929  25.9929
  13042.305  13042.300  0.500  1.192308  46.8252  81.9762  24.8814
  13043.196  13043.200  0.500  1.238350  46.7994  81.9275  23.7477
  13044.116  13044.100  0.500  1.284039  46.7854  81.9012  22.6798
  13044.977  13045.000  0.500  1.324512  46.7724  81.8867  21.7764
  13045.868  13045.900  0.500  1.361365  46.7658  81.888  20.9888
  13046.804  13046.800  0.500  1.394988  46.7605  81.8691  20.2901
  13047.702  13047.700  0.500  1.421520  46.7412  81.833  19.7501
  13048.601  13048.600  0.500  1.441208  46.6794  81.7372  19.3424
  13049.514  13049.500  0.500  1.453794  46.635  81.6567  19.0817
  13050.413  13050.400  0.500  1.459303  46.6485  81.6882  18.9842
  13051.298  13051.300  0.500  1.460701  46.6765  81.738  18.9692
  13052.189  13052.200  0.500  1.459428  46.6716  81.7269  18.9908
  13053.081  13053.100  0.500  1.457626  46.6617  81.7103  19.0212
  13053.996  13054.000  0.500  1.456484  46.652  81.6987  19.0402
  13054.910  13054.900  0.500  1.456842  46.6313  81.6659  19.0258
  13055.825  13055.800  0.500  1.459398  46.6302  81.6587  18.9755
  13056.702  13056.700  0.500  1.464050  46.6142  81.6355  18.8821
  13057.610  13057.600  0.500  1.471421  46.6218  81.6535  18.7476
  13058.517  13058.500  0.500  1.481506  46.5902  81.6005  18.5474
  13059.395  13059.400  0.500  1.494068  46.5925  81.6016  18.3161
  13060.176  13060.200  0.500  1.505818  46.5704  81.5646  18.094
  13063.228  13063.210  0.500  1.540342  46.5357  81.5055  17.4673
  13066.378  13066.400  0.500  1.537660  46.4956  81.4541  17.5031
  13069.767  13069.760  0.500  1.521005  46.4579  81.3835  17.7817
  13073.301  13073.280  0.500  1.517316  46.3615  81.2296  17.8136
  13076.978  13076.980  0.500  1.518380  46.3683  81.2421  17.7974
  13080.851  13080.850  0.500  1.521723  46.3263  81.1778  17.724
  13084.876  13084.900  0.500  1.534890  46.2798  81.1049  17.4764
  13089.090  13089.110  0.500  1.544952  46.2347  81.036  17.2868
  13093.943  13093.490  0.500  1.538594  46.1061  80.8243  17.3516
  13098.021  13098.050  0.500  1.529972  46.1131  80.8416  17.5056
  13102.783  13102.780  0.500  1.523547  46.044  80.7338  17.5949
  13107.668  13107.680  0.500  1.521017  45.9825  80.6374  17.6184
  13112.767  13112.750  0.500  1.524681  45.9603  80.5961  17.545
  13117.998  13117.990  0.500  1.530259  45.8235  80.3672  17.3979
  13123.421  13123.410  0.500  1.529933  45.832  80.4003  17.4107
  13128.992  13128.990  0.500  1.524268  45.7811  80.3175  17.4916
  13134.733  13134.750  0.500  1.519669  45.7104  80.1957  17.5456
  13140.689  13140.680  0.500  1.518245  45.6719  80.1445  17.5593
  13146.772  13146.780  0.500  1.517126  45.589  80.0083  17.5491
  13153.057  13153.050  0.500  1.516627  45.5229  79.9138  17.5371
  13159.507  13159.490  0.500  1.515637  45.5952  80.0514  17.5847
  13166.114  13166.100  0.500  1.513904  45.507  79.9005  17.582
  13172.902  13172.890  0.500  1.512302  45.464  79.8448  17.5979
  13179.849  13179.850  0.500  1.510834  45.3862  79.7217  17.5966
  13187.001  13186.970  0.500  1.509182  45.3081  79.5883  17.5962
  13194.274  13194.270  0.500  1.506933  45.241  79.4925  17.6146
  13201.776  13201.750  0.500  1.504338  45.149  79.3419  17.6269
  13209.386  13209.390  0.500  1.502226  45.0569  79.2012  17.6329
  13217.195  13217.200  0.500  1.500695  44.9866  79.0878  17.6346
  13225.197  13225.190  0.500  1.499735  44.859  78.8873  17.6068
  13233.361  13233.350  0.500  1.498965  44.7826  78.7667  17.5934
  13241.666  13241.670  0.500  1.497629  44.69  78.6087  17.5816
  13250.188  13250.170  0.500  1.495592  44.5901  78.4597  17.5841
  13258.859  13258.850  0.500  1.493225  44.4589  78.2401  17.5764
  13267.680  13267.690  0.500  1.491483  44.2635  77.909  17.5325
  13276.720  13276.700  0.500  1.489798  43.6662  76.8746  17.3289
  13285.904  13285.890  0.500  1.488301  43.5791  76.7368  17.3238
  13295.255  13295.250  0.500  1.486411  43.4902  76.5987  17.3253
  13304.774  13304.770  0.500  1.484222  43.3352  76.3402  17.3047
  13314.477  13314.470  0.500  1.481599  43.3034  76.3026  17.3416
  13324.380  13324.350  0.500  1.479288  43.1752  76.1026  17.3361
  13334.415  13334.390  0.500  1.476716  43.0782  75.9338  17.3423
  13344.620  13344.600  0.500  1.474327  43.0157  75.8548  17.3656
  13354.989  13354.990  0.500  1.471992  42.9509  75.7509  17.3824
  13365.562  13365.550  0.500  1.469256  42.8211  75.5381  17.3811
  13376.315  13376.280  0.500  1.466463  42.7002  75.3461  17.3854
  13387.188  13387.180  0.500  1.463632  42.6046  75.1926  17.3991
  13398.258  13398.250  0.500  1.460845  42.4884  75.0145  17.4064
  13409.505  13409.490  0.500  1.457885  42.4031  74.8745  17.4254
  13420.927  13420.910  0.500  1.455033  42.2921  74.7007  17.4346
  13432.519  13432.490  0.500  1.452221  42.161  74.4837  17.4329
  13444.265  13444.250  0.500  1.449230  42.0453  74.3036  17.4428
  13456.206  13456.180  0.500  1.446114  41.9201  74.1056  17.4507
  13468.280  13468.280  0.500  1.442969  41.8006  73.9082  17.459
  13480.589  13480.550  0.500  1.439950  41.6174  73.593  17.4371
  13493.009  13492.990  0.500  1.436826  41.5462  73.4967  17.4688
  13505.643  13505.610  0.500  1.433613  41.4565  73.3586  17.4921
  13518.428  13518.390  0.500  1.430577  41.3095  73.1167  17.4874
  13531.390  13531.350  0.500  1.427329  41.1626  72.8778  17.487
  13544.498  13544.480  0.500  1.424098  41.0811  72.7475  17.5122
  13557.807  13557.780  0.500  1.420794  40.257  71.3106  17.2231
  13571.264  13571.250  0.500  1.417533  40.791  72.2839  17.5152
  13584.900  13584.900  0.500  1.414038  40.6867  72.1198  17.5366
  13598.726  13598.710  0.500  1.410672  40.5605  71.9122  17.5451
  13612.718  13612.700  0.500  1.407169  40.3957  71.6472  17.5418
  13626.902  13626.860  0.500  1.403483  40.2808  71.4628  17.5612
  13641.204  13641.190  0.500  1.399803  40.138  71.2303  17.5686
  13655.732  13655.690  0.500  1.396114  40.0022  71.0098  17.579
  13670.374  13670.360  0.500  1.392638  39.8618  70.7776  17.5825
  13685.243  13685.200  0.500  1.388775  39.7143  70.5318  17.5893
  13700.276  13700.220  0.500  1.385163  39.5665  70.2992  17.5947
  13715.466  13715.400  0.500  1.381334  39.4209  70.0564  17.6012
  13730.797  13730.760  0.500  1.377607  39.2753  69.8261  17.6088
  13746.320  13746.290  0.500  1.373740  39.1232  69.5763  17.6138
  13762.035  13761.990  0.500  1.369793  38.9696  69.3287  17.6206
  13777.911  13777.860  0.500  1.366015  38.9316  69.2775  17.6742
  13793.957  13793.910  0.500  1.361932  38.7899  69.0499  17.6882
  13810.174  13810.120  0.500  1.357821  38.6424  68.7992  17.6966
  13826.580  13826.510  0.500  1.353891  38.4753  68.5365  17.6984
  13843.117  13843.070  0.500  1.349643  38.3177  68.263  17.7029
  13859.837  13859.800  0.500  1.345549  38.131  67.967  17.6984
  13876.750  13876.700  0.500  1.341467  37.8978  67.5654  17.6658
  13888.107  13888.060  0.500  1.338516  37.6112  67.0723  17.5887