Folder: webxdiviewer/xdidata/Data/Pt

Note: xdidata/README.md
# bmm-standards
A pretty webpage for BMM's collection of common XAFS materials

[BMM's common materials collection](./BMM-standards.html)

Plotting of the data will happen soon.

Periodic table adapted from [some guy named Daniel](https://codepen.io/gooseofmusic/pen/PjKdNQ)

[This](https://www.coderstool.com/scss-to-css) is a helpful tool for
dealing with Sassy CSS.

File: Pt-L1-PlatinumChloride.xdi
# XDI/1.0 BlueSky/1.10.0 BMM/2023-1.0-py310-tiled
# Beamline.name: BMM (06BM) -- Beamline for Materials Measurement (NIST)
# Beamline.xray_source: NSLS-II three-pole wiggler
# Beamline.collimation: paraboloid mirror, 5 nm Rh on 30 nm Pt
# Beamline.focusing: not in use
# Beamline.harmonic_rejection: flat mirror, Pt stripe, pitch = 7.0 mrad relative to beam
# Beamline.software: Bluesky 1.10.0, Ophyd 1.7.0, DataBroker 2.0.0b13, Python 3.10.8, 2023-1.0-py310-tiled
# Detector.I0: 10 cm N2
# Detector.I1: 25 cm N2
# Detector.I2: 25 cm N2
# Element.symbol: Pt
# Element.edge: L1
# Element.reference: Pt
# Element.reference_material: Pt foil
# Facility.name: NSLS-II
# Facility.energy: 3.0
# Facility.current: 400.3
# Facility.mode: top-off
# Facility.GUP: 301027
# Facility.SAF: 310583
# Facility.cycle: 2023-2
# Mono.name: Si(111)
# Mono.d_spacing: 3.13519
# Mono.encoder_resolution: 0.0000050 deg/ct
# Mono.angle_offset: 16.0754 deg
# Mono.scan_mode: pseudo channel cut
# Mono.scan_type: step
# Mono.direction: forward in energy
# Sample.name: PtCl2
# Sample.prep: powder on tape
# Sample.x: 119.711 mm
# Sample.y: 114.376 mm
# Sample.SDD_position: 205.000 mm
# Scan.experimenters: Bruce Ravel
# Scan.edge_energy: 13880.5
# Scan.start_time: 2023-06-27T19:43:56
# Scan.end_time: 2023-06-27T19:51:46
# Scan.transient_id: 85271
# Scan.uid: ef1f90cd-ec03-4686-895c-3f464d443e44
# Scan.plot_hint: ln(I0/It)  --  ln($5/$6)
# Column.1: energy eV
# Column.2: requested_energy eV
# Column.3: measurement_time seconds
# Column.4: xmu
# Column.5: I0 nA
# Column.6: It nA
# Column.7: Ir nA
# ///////////
# sample courtesy Simon Bare and Shelly Kelly
# -----------
# energy  requested_energy  measurement_time  xmu  I0  It  Ir
  13680.501  13680.500  0.500  0.564363  38.739  22.0318  5.065976
  13710.563  13710.500  0.500  0.556903  38.584  22.1079  5.113660
  13740.578  13740.500  0.500  0.549571  38.3122  22.1137  5.188958
  13770.511  13770.500  0.500  0.544825  38.0877  22.0887  5.192010
  13800.517  13800.500  0.500  0.539922  37.8256  22.0445  5.212991
  13830.564  13830.500  0.500  0.534339  37.5904  22.0301  5.258736
  13852.516  13852.500  0.500  0.531923  37.3839  21.9621  5.258051
  13858.470  13858.500  0.500  0.531744  37.3236  21.9306  5.244139
  13864.504  13864.500  0.500  0.532548  37.2835  21.8894  5.223975
  13870.460  13870.500  0.500  0.534474  37.2029  21.8001  5.178641
  13871.343  13871.400  0.500  0.535135  37.196  21.7816  5.168999
  13872.242  13872.300  0.500  0.535746  37.1702  21.7532  5.156146
  13873.167  13873.200  0.500  0.536533  37.168  21.7348  5.145385
  13874.067  13874.100  0.500  0.537320  37.1265  21.6935  5.127689
  13874.966  13875.000  0.500  0.538286  37.1071  21.6612  5.110569
  13875.875  13875.900  0.500  0.539548  37.1161  21.6392  5.093914
  13876.775  13876.800  0.500  0.541038  37.1119  21.6044  5.072445
  13877.666  13877.700  0.500  0.542740  37.085  21.5521  5.043010
  13878.567  13878.600  0.500  0.544760  37.0649  21.4969  5.011490
  13879.476  13879.500  0.500  0.547577  37.0315  21.4171  4.970440
  13880.401  13880.400  0.500  0.550680  37.0077  21.3371  4.923611
  13881.293  13881.300  0.500  0.554367  36.9934  21.2503  4.873813
  13882.186  13882.200  0.500  0.558566  36.9398  21.1306  4.813089
  13883.103  13883.100  0.500  0.563672  36.9443  21.0256  4.753050
  13884.004  13884.000  0.500  0.569502  36.93  20.8953  4.686208
  13884.914  13884.900  0.500  0.575930  36.9312  20.762  4.619175
  13885.773  13885.800  0.500  0.583074  36.8961  20.5946  4.545545
  13886.700  13886.700  0.500  0.590910  36.8569  20.4122  4.466702
  13887.576  13887.600  0.500  0.598546  36.846  20.2509  4.398676
  13888.503  13888.500  0.500  0.606295  36.8429  20.0929  4.325121
  13889.413  13889.400  0.500  0.613883  36.7979  19.9167  4.247962
  13890.323  13890.300  0.500  0.621115  36.774  19.7603  4.176657
  13891.208  13891.200  0.500  0.627456  36.749  19.6221  4.105306
  13892.093  13892.100  0.500  0.633074  36.7099  19.4914  4.036865
  13893.004  13893.000  0.500  0.637369  36.7045  19.405  3.978036
  13893.864  13893.900  0.500  0.640331  36.683  19.3363  3.929254
  13894.783  13894.800  0.500  0.642250  36.6493  19.2814  3.886200
  13895.694  13895.700  0.500  0.642960  36.6414  19.2636  3.855969
  13896.605  13896.600  0.500  0.643082  36.6002  19.2396  3.832953
  13897.516  13897.500  0.500  0.643026  36.5962  19.2386  3.821326
  13898.402  13898.400  0.500  0.642856  36.7225  19.3083  3.829171
  13899.305  13899.300  0.500  0.642756  36.7441  19.3216  3.830653
  13900.191  13900.200  0.500  0.642754  36.7318  19.3152  3.832361
  13901.103  13901.100  0.500  0.642949  36.722  19.3062  3.837550
  13901.973  13902.000  0.500  0.643181  36.7349  19.3085  3.846672
  13902.893  13902.900  0.500  0.643605  36.6999  19.2819  3.853219
  13903.813  13903.800  0.500  0.644161  36.6852  19.2635  3.864899
  13904.709  13904.700  0.500  0.644804  36.6826  19.2498  3.876255
  13905.503  13905.500  0.500  0.645463  36.7253  19.2595  3.890869
  13908.527  13908.510  0.500  0.647065  36.7008  19.2158  3.916366
  13911.714  13911.700  0.500  0.647232  36.6423  19.182  3.915995
  13915.080  13915.060  0.500  0.646534  36.6369  19.1925  3.902029
  13918.583  13918.580  0.500  0.644493  36.5907  19.2075  3.870970
  13922.299  13922.280  0.500  0.640482  36.5742  19.276  3.852861
  13926.170  13926.150  0.500  0.635528  36.5533  19.3606  3.867458
  13930.230  13930.200  0.500  0.631811  36.5209  19.4155  3.922319
  13934.419  13934.410  0.500  0.630210  36.5163  19.4442  3.967470
  13938.806  13938.790  0.500  0.630200  36.4784  19.4242  3.976910
  13943.357  13943.350  0.500  0.630614  36.4488  19.4004  3.975023
  13948.098  13948.080  0.500  0.631311  36.4145  19.3686  3.971774
  13952.987  13952.980  0.500  0.632573  36.3586  19.3145  3.959214
  13958.067  13958.050  0.500  0.634631  36.3274  19.2583  3.943324
  13963.286  13963.290  0.500  0.636538  36.2618  19.1869  3.919411
  13968.715  13968.710  0.500  0.636551  36.1679  19.137  3.907348
  13974.267  13974.290  0.500  0.632807  33.6443  17.8685  3.662702
  13980.045  13980.050  0.500  0.627872  36.1766  19.3084  3.979892
  13985.948  13985.980  0.500  0.623548  36.1342  19.3694  4.003998
  13992.087  13992.080  0.500  0.620498  36.0867  19.403  4.013625
  13998.300  13998.350  0.500  0.618135  36.0401  19.4238  4.019604
  14004.775  14004.790  0.500  0.616457  36.0025  19.4361  4.033652
  14011.317  14011.400  0.500  0.615506  35.9555  19.4292  4.043218
  14018.191  14018.190  0.500  0.615657  35.8609  19.3751  4.030950
  14025.149  14025.150  0.500  0.616595  35.801  19.3246  4.011411
  14032.226  14032.270  0.500  0.617451  35.7517  19.2815  3.999672
  14039.552  14039.570  0.500  0.616719  35.6834  19.2588  4.008888
  14047.031  14047.050  0.500  0.614058  35.6229  19.2773  4.030675
  14054.674  14054.690  0.500  0.610906  35.5459  19.2964  4.056865
  14062.481  14062.500  0.500  0.608176  35.4476  19.2957  4.068618
  14070.488  14070.490  0.500  0.605490  35.2015  19.2132  4.067256
  14078.650  14078.650  0.500  0.602911  35.4859  19.4185  4.132097
  14086.952  14086.970  0.500  0.600796  35.3702  19.3961  4.131331
  14095.490  14095.470  0.500  0.599018  35.3143  19.4  4.124754
  14104.160  14104.150  0.500  0.597967  35.1878  19.3507  4.115670
  14112.989  14112.990  0.500  0.597249  35.1091  19.3214  4.113403
  14122.003  14122.000  0.500  0.596069  33.1296  18.2535  3.898634
  14131.169  14131.190  0.500  0.594484  35.0071  19.3186  4.149239
  14140.565  14140.550  0.500  0.592183  34.9634  19.3389  4.171413
  14150.061  14150.070  0.500  0.589779  34.8902  19.3448  4.188139
  14159.762  14159.770  0.500  0.587189  34.6683  19.2717  4.176312
  14169.644  14169.650  0.500  0.584167  34.0615  18.9917  4.112732
  14179.725  14179.690  0.500  0.581261  34.7452  19.4293  4.220315
  14189.916  14189.900  0.500  0.578836  34.6438  19.4196  4.228057
  14200.299  14200.290  0.500  0.576574  34.5311  19.4003  4.236065
  14210.873  14210.850  0.500  0.574741  34.4708  19.4019  4.262452
  14221.597  14221.580  0.500  0.572898  34.4736  19.4393  4.298918
  14232.513  14232.480  0.500  0.570768  34.3907  19.4339  4.310591
  14243.562  14243.550  0.500  0.568791  34.3024  19.4223  4.307830
  14254.806  14254.790  0.500  0.566553  34.2106  19.4137  4.312594
  14266.209  14266.210  0.500  0.564058  34.0654  19.3797  4.319608
  14277.792  14277.790  0.500  0.561442  34.0679  19.4318  4.339344
  14289.564  14289.550  0.500  0.558553  33.9846  19.4404  4.351463
  14301.524  14301.480  0.500  0.555812  33.8652  19.4253  4.366328
  14313.622  14313.580  0.500  0.552839  33.7972  19.444  4.390462
  14325.893  14325.850  0.500  0.550459  33.6906  19.4289  4.409727
  14338.328  14338.290  0.500  0.547979  33.6139  19.4328  4.421578
  14350.948  14350.910  0.500  0.545730  33.517  19.4204  4.426789
  14363.716  14363.690  0.500  0.543140  33.4232  19.4163  4.438910
  14376.643  14376.650  0.500  0.540663  33.2614  19.3702  4.444267
  14389.792  14389.780  0.500  0.537860  33.251  19.4185  4.473404
  14403.084  14403.080  0.500  0.534751  33.1354  19.4112  4.491108
  14416.573  14416.550  0.500  0.531824  33.0356  19.4095  4.509406
  14430.224  14430.200  0.500  0.528815  32.9399  19.4116  4.525014
  14444.020  14444.010  0.500  0.525967  32.8265  19.3999  4.534862
  14458.035  14458.000  0.500  0.523520  32.7467  19.4002  4.547236
  14472.187  14472.160  0.500  0.520590  32.6394  19.3934  4.558565
  14486.522  14486.490  0.500  0.517914  32.5386  19.3853  4.572257
  14501.043  14500.990  0.500  0.515002  32.4346  19.3797  4.591265
  14515.704  14515.660  0.500  0.512177  32.308  19.3586  4.609065
  14530.542  14530.500  0.500  0.509003  32.2267  19.3713  4.632897
  14545.532  14545.520  0.500  0.506027  32.1335  19.3728  4.650708
  14560.738  14560.700  0.500  0.502885  32.0238  19.3675  4.667035
  14576.106  14576.060  0.500  0.499795  31.9104  19.3586  4.681956
  14591.628  14591.590  0.500  0.496641  31.8009  19.3531  4.693886
  14607.370  14607.290  0.500  0.493653  31.6895  19.3431  4.704153
  14623.193  14623.160  0.500  0.490466  31.5763  19.3355  4.721985
  14639.247  14639.210  0.500  0.487325  31.4656  19.3283  4.744668
  14655.450  14655.420  0.500  0.484269  31.3581  19.3212  4.765714
  14671.859  14671.810  0.500  0.481114  31.243  19.3111  4.782477
  14688.408  14688.370  0.500  0.478170  31.1114  19.2865  4.796086
  14705.109  14705.100  0.500  0.474880  30.9952  19.2778  4.810632
  14722.028  14722.000  0.500  0.471700  30.9324  19.3  4.834571
  14733.383  14733.360  0.500  0.469222  30.8588  19.3018  4.847072