Folder: webxdiviewer/xdidata/Data/Re

Note: xdidata/README.md
# bmm-standards
A pretty webpage for BMM's collection of common XAFS materials

[BMM's common materials collection](./BMM-standards.html)

Plotting of the data will happen soon.

Periodic table adapted from [some guy named Daniel](https://codepen.io/gooseofmusic/pen/PjKdNQ)

[This](https://www.coderstool.com/scss-to-css) is a helpful tool for
dealing with Sassy CSS.

File: Re-L1-Rhenium_metal.xdi
# XDI/1.0 BlueSky/1.10.0 BMM/2023-1.0-py310-tiled
# Beamline.name: BMM (06BM) -- Beamline for Materials Measurement (NIST)
# Beamline.xray_source: NSLS-II three-pole wiggler
# Beamline.collimation: paraboloid mirror, 5 nm Rh on 30 nm Pt
# Beamline.focusing: not in use
# Beamline.harmonic_rejection: flat mirror, Pt stripe, pitch = 7.0 mrad relative to beam
# Beamline.software: Bluesky 1.10.0, Ophyd 1.7.0, DataBroker 2.0.0b13, Python 3.10.8, 2023-1.0-py310-tiled
# Detector.I0: 10 cm N2
# Detector.I1: 25 cm N2
# Detector.I2: 25 cm N2
# Element.symbol: Re
# Element.edge: L1
# Element.reference: Re
# Element.reference_material: ReO2
# Facility.name: NSLS-II
# Facility.energy: 3.0
# Facility.current: 400.0
# Facility.mode: top-off
# Facility.GUP: 301027
# Facility.SAF: 310583
# Facility.cycle: 2023-2
# Mono.name: Si(111)
# Mono.d_spacing: 3.13519
# Mono.encoder_resolution: 0.0000050 deg/ct
# Mono.angle_offset: 16.0754 deg
# Mono.scan_mode: pseudo channel cut
# Mono.scan_type: step
# Mono.direction: forward in energy
# Sample.name: Re metal powder
# Sample.prep: powder on tape
# Sample.x: 145.711 mm
# Sample.y: 114.376 mm
# Sample.SDD_position: 205.000 mm
# Scan.experimenters: Bruce Ravel
# Scan.edge_energy: 12526.7
# Scan.start_time: 2023-06-27T18:51:22
# Scan.end_time: 2023-06-27T18:59:29
# Scan.transient_id: 85239
# Scan.uid: b701cb24-48b9-43e4-8448-aa0e4152638d
# Scan.plot_hint: ln(I0/It)  --  ln($5/$6)
# Column.1: energy eV
# Column.2: requested_energy eV
# Column.3: measurement_time seconds
# Column.4: xmu
# Column.5: I0 nA
# Column.6: It nA
# Column.7: Ir nA
# ///////////
# Welcome to BMM
# -----------
# energy  requested_energy  measurement_time  xmu  I0  It  Ir
  12326.711  12326.700  0.500  5.670397  55.9744  0.192916  0.006219
  12356.777  12356.700  0.500  5.642683  55.6361  0.197138  0.006555
  12386.738  12386.700  0.500  5.636883  55.326  0.197180  0.006804
  12416.739  12416.700  0.500  5.594312  54.9415  0.204325  0.006960
  12446.705  12446.700  0.500  5.564004  54.6013  0.209309  0.007397
  12476.730  12476.700  0.500  5.564555  54.2311  0.207775  0.007495
  12498.680  12498.700  0.500  5.550495  53.9867  0.209767  0.007513
  12504.660  12504.700  0.500  5.545489  53.8931  0.210454  0.007620
  12510.666  12510.700  0.500  5.545522  53.8203  0.210163  0.007731
  12516.678  12516.700  0.500  5.548401  53.7459  0.209269  0.007583
  12517.566  12517.600  0.500  5.549741  53.7266  0.208914  0.007476
  12518.454  12518.500  0.500  5.550866  53.7185  0.208648  0.007550
  12519.355  12519.400  0.500  5.552226  53.704  0.208308  0.007495
  12520.250  12520.300  0.500  5.554677  53.6933  0.207756  0.007497
  12521.166  12521.200  0.500  5.556984  53.6759  0.207211  0.007516
  12522.067  12522.100  0.500  5.560867  53.6606  0.206349  0.007319
  12522.976  12523.000  0.500  5.565911  53.6563  0.205294  0.007419
  12523.879  12523.900  0.500  5.571999  53.6432  0.203998  0.007313
  12524.788  12524.800  0.500  5.578429  53.6288  0.202636  0.007246
  12525.697  12525.700  0.500  5.588309  53.6149  0.200592  0.007238
  12526.600  12526.600  0.500  5.600773  53.6013  0.198057  0.006856
  12527.502  12527.500  0.500  5.617827  53.5859  0.194652  0.006760
  12528.392  12528.400  0.500  5.637314  53.5688  0.190835  0.006733
  12529.288  12529.300  0.500  5.656781  53.5584  0.187119  0.006443
  12530.184  12530.200  0.500  5.679205  53.5488  0.182937  0.006337
  12531.087  12531.100  0.500  5.700327  53.5412  0.179088  0.006057
  12532.005  12532.000  0.500  5.720177  53.6686  0.175986  0.005960
  12532.901  12532.900  0.500  5.738901  53.6567  0.172684  0.005719
  12533.798  12533.800  0.500  5.758590  53.642  0.169270  0.005448
  12534.702  12534.700  0.500  5.778204  53.6278  0.165939  0.005307
  12535.592  12535.600  0.500  5.796354  53.6061  0.162888  0.005044
  12536.489  12536.500  0.500  5.818397  53.6038  0.159330  0.004996
  12537.380  12537.400  0.500  5.839907  53.5792  0.155868  0.004786
  12538.305  12538.300  0.500  5.863726  53.5595  0.152143  0.004523
  12539.195  12539.200  0.500  5.890160  53.5186  0.148061  0.004434
  12540.114  12540.100  0.500  5.921605  53.3491  0.143023  0.004276
  12540.998  12541.000  0.500  5.951057  53.0865  0.138189  0.003958
  12541.903  12541.900  0.500  5.980679  53.2209  0.134495  0.003852
  12542.787  12542.800  0.500  6.010259  53.4268  0.131080  0.003594
  12543.692  12543.700  0.500  6.035659  53.5066  0.127984  0.003535
  12544.591  12544.600  0.500  6.056649  53.5117  0.125337  0.003349
  12545.489  12545.500  0.500  6.073683  53.4825  0.123153  0.003135
  12546.408  12546.400  0.500  6.086602  53.4674  0.121538  0.003041
  12547.300  12547.300  0.500  6.093405  53.4592  0.120695  0.002962
  12548.220  12548.200  0.500  6.094469  53.4355  0.120513  0.002860
  12549.098  12549.100  0.500  6.088756  53.4258  0.121182  0.002838
  12549.991  12550.000  0.500  6.081233  53.4154  0.122073  0.002801
  12550.890  12550.900  0.500  6.071884  53.403  0.123191  0.002812
  12551.679  12551.700  0.500  6.059891  53.3916  0.124651  0.002821
  12554.722  12554.710  0.500  6.032583  53.3473  0.127996  0.002946
  12557.903  12557.900  0.500  6.019965  53.3047  0.129517  0.002938
  12561.279  12561.260  0.500  6.015429  53.2585  0.129993  0.003052
  12564.767  12564.780  0.500  6.026243  53.2182  0.128498  0.002875
  12568.497  12568.480  0.500  6.051464  53.1693  0.125182  0.003046
  12572.313  12572.350  0.500  6.071911  53.12  0.122535  0.003092
  12576.392  12576.400  0.500  6.073748  53.0639  0.122181  0.003080
  12580.606  12580.610  0.500  6.052511  53.0225  0.124706  0.003260
  12585.381  12584.990  0.500  6.034903  52.9572  0.126765  0.003263
  12589.635  12589.550  0.500  6.024931  52.8861  0.127864  0.003337
  12594.266  12594.280  0.500  6.016134  52.8244  0.128843  0.003356
  12599.183  12599.180  0.500  6.006109  52.7626  0.129989  0.003425
  12604.250  12604.250  0.500  6.001063  52.7007  0.130493  0.003495
  12609.473  12609.490  0.500  5.999087  52.6413  0.130604  0.003377
  12614.930  12614.910  0.500  6.000909  52.5754  0.130203  0.003425
  12620.482  12620.490  0.500  6.010207  52.4897  0.128788  0.003346
  12626.268  12626.250  0.500  6.004928  52.4284  0.129318  0.003382
  12632.177  12632.180  0.500  5.998194  52.3613  0.130025  0.003449
  12638.287  12638.280  0.500  5.989099  52.2836  0.131019  0.003459
  12644.571  12644.550  0.500  5.978485  52.2087  0.132227  0.003566
  12650.965  12650.990  0.500  5.964317  52.1267  0.133903  0.003587
  12657.610  12657.600  0.500  5.939970  52.0489  0.136998  0.003504
  12664.389  12664.390  0.500  5.920929  51.9662  0.139410  0.003794
  12671.370  12671.350  0.500  5.919020  51.8847  0.139457  0.003932
  12678.486  12678.470  0.500  5.936802  51.7999  0.136775  0.003755
  12685.757  12685.770  0.500  5.940486  51.7104  0.136037  0.003705
  12693.261  12693.250  0.500  5.939722  51.6208  0.135905  0.003792
  12700.894  12700.890  0.500  5.935792  51.5343  0.136212  0.003699
  12708.677  12708.700  0.500  5.931944  51.5966  0.136902  0.003713
  12716.681  12716.690  0.500  5.923402  51.5005  0.137820  0.003656
  12724.864  12724.850  0.500  5.901752  51.4012  0.140564  0.003887
  12733.165  12733.170  0.500  5.878861  51.2889  0.143505  0.003944
  12741.674  12741.670  0.500  5.876821  51.2104  0.143578  0.004035
  12750.351  12750.350  0.500  5.877979  51.1116  0.143135  0.004004
  12759.211  12759.190  0.500  5.870632  51.0035  0.143885  0.004142
  12768.218  12768.200  0.500  5.874911  50.895  0.142966  0.004108
  12777.408  12777.390  0.500  5.860085  50.7826  0.144781  0.004237
  12786.755  12786.750  0.500  5.837960  50.6756  0.147708  0.004262
  12796.258  12796.270  0.500  5.820328  50.562  0.149999  0.004449
  12805.961  12805.970  0.500  5.805386  50.4497  0.151919  0.004587
  12815.866  12815.850  0.500  5.798424  50.3361  0.152636  0.004524
  12825.922  12825.890  0.500  5.802997  50.2092  0.151556  0.004460
  12836.124  12836.100  0.500  5.798238  50.0823  0.151894  0.004643
  12846.522  12846.490  0.500  5.799261  49.9681  0.151393  0.004608
  12857.088  12857.050  0.500  5.793081  49.8472  0.151963  0.004507
  12867.795  12867.780  0.500  5.776754  49.7278  0.154094  0.004891
  12878.694  12878.680  0.500  5.753647  49.4712  0.156883  0.004753
  12889.770  12889.750  0.500  5.741148  49.467  0.158842  0.005066
  12901.019  12900.990  0.500  5.736507  49.2776  0.158970  0.005007
  12912.440  12912.410  0.500  5.728181  49.1859  0.160001  0.004898
  12924.012  12923.990  0.500  5.717304  49.0719  0.161376  0.005090
  12935.796  12935.750  0.500  5.707845  48.9394  0.162470  0.005286
  12947.696  12947.680  0.500  5.698291  48.7739  0.163475  0.005298
  12959.779  12959.780  0.500  5.683945  48.6862  0.165539  0.005468
  12972.062  12972.050  0.500  5.666477  48.5358  0.167935  0.005616
  12984.515  12984.490  0.500  5.653983  48.3894  0.169534  0.005675
  12997.139  12997.110  0.500  5.648898  48.2464  0.169895  0.005598
  13009.929  13009.890  0.500  5.643868  48.0977  0.170225  0.005752
  13022.870  13022.850  0.500  5.636477  47.9503  0.170962  0.005844
  13036.008  13035.980  0.500  5.624983  47.7991  0.172393  0.005857
  13049.321  13049.280  0.500  5.609832  47.5979  0.174289  0.006028
  13062.781  13062.750  0.500  5.591037  47.4886  0.177187  0.006098
  13076.433  13076.400  0.500  5.573227  47.3308  0.179772  0.006305
  13090.241  13090.210  0.500  5.557882  47.173  0.181943  0.006419
  13104.228  13104.200  0.500  5.545418  47.0028  0.183561  0.006668
  13118.381  13118.360  0.500  5.538048  46.7931  0.184093  0.006550
  13132.753  13132.690  0.500  5.535680  46.6748  0.184063  0.006753
  13147.247  13147.190  0.500  5.527380  46.5243  0.184999  0.006881
  13161.903  13161.860  0.500  5.512425  46.3582  0.187116  0.006952
  13176.735  13176.700  0.500  5.492752  46.1899  0.190141  0.007216
  13191.760  13191.720  0.500  5.477318  46.0197  0.192387  0.007208
  13206.935  13206.900  0.500  5.464809  45.8414  0.194054  0.007327
  13222.282  13222.260  0.500  5.448409  45.6523  0.196449  0.007545
  13237.833  13237.790  0.500  5.432476  45.4662  0.198790  0.007659
  13253.544  13253.490  0.500  5.424726  45.2641  0.199446  0.007926
  13269.393  13269.360  0.500  5.415087  44.9453  0.199960  0.007864
  13285.434  13285.410  0.500  5.402797  44.3125  0.199582  0.008029
  13301.661  13301.620  0.500  5.382997  44.0687  0.202453  0.008060
  13318.037  13318.010  0.500  5.369159  43.9413  0.204681  0.008475
  13334.609  13334.570  0.500  5.354086  43.7282  0.206782  0.008343
  13351.347  13351.300  0.500  5.340845  43.6156  0.208998  0.008613
  13368.252  13368.200  0.500  5.325901  43.4241  0.211213  0.008869
  13379.619  13379.560  0.500  5.316908  43.2974  0.212500  0.009125