Folder: webxdiviewer/xdidata/Data/Sm (part 2)

File: Sm-L3-SamariumOxide.xdi
# XDI/1.0 BlueSky/1.10.0 BMM/2023-1.0-py310-tiled
# Beamline.name: BMM (06BM) -- Beamline for Materials Measurement (NIST)
# Beamline.xray_source: NSLS-II three-pole wiggler
# Beamline.collimation: paraboloid mirror, 5 nm Rh on 30 nm Pt
# Beamline.focusing: not in use
# Beamline.harmonic_rejection: flat mirror, Si stripe, pitch = 7.0 mrad relative to beam
# Beamline.software: Bluesky 1.10.0, Ophyd 1.7.0, DataBroker 2.0.0b13, Python 3.10.8, 2023-1.0-py310-tiled
# Detector.I0: 10 cm N2
# Detector.I1: 25 cm N2
# Detector.I2: 25 cm N2
# Element.symbol: Sm
# Element.edge: L3
# Element.reference: Sm
# Element.reference_material: Sm2O3
# Facility.name: NSLS-II
# Facility.energy: 3.0
# Facility.current: 399.8
# Facility.mode: top-off
# Facility.GUP: 301027
# Facility.SAF: 310583
# Facility.cycle: 2023-2
# Mono.name: Si(111)
# Mono.d_spacing: 3.13519
# Mono.encoder_resolution: 0.0000050 deg/ct
# Mono.angle_offset: 16.0754 deg
# Mono.scan_mode: pseudo channel cut
# Mono.scan_type: step
# Mono.direction: forward in energy
# Sample.name: Sm2O3
# Sample.prep: PEG pellet
# Sample.x: 109.138 mm
# Sample.y: 153.150 mm
# Sample.SDD_position: 205.000 mm
# Scan.experimenters: Bruce Ravel
# Scan.edge_energy: 6716.2
# Scan.start_time: 2023-05-28T12:47:25
# Scan.end_time: 2023-05-28T12:54:33
# Scan.transient_id: 78693
# Scan.uid: fb4a542a-9527-4c77-abc3-811d9e1a9039
# Scan.plot_hint: ln(It/Ir)  --  ln($6/$7)
# Column.1: energy eV
# Column.2: requested_energy eV
# Column.3: measurement_time seconds
# Column.4: xmu
# Column.5: I0 nA
# Column.6: It nA
# Column.7: Ir nA
# ///////////
# sample courtesy Martin Stennett, University of Sheffield
# -----------
# energy  requested_energy  measurement_time  xmu  I0  It  Ir
  6516.205  6516.200  0.500  2.890517  152.315  122.023  6.778086
  6546.194  6546.200  0.500  2.852686  152.878  123.976  7.152063
  6576.221  6576.200  0.500  2.815693  153.348  125.912  7.537514
  6606.210  6606.200  0.500  2.778846  153.804  127.789  7.937026
  6636.209  6636.200  0.500  2.743169  154.234  129.634  8.344058
  6666.203  6666.200  0.500  2.710426  154.597  131.428  8.741055
  6688.180  6688.200  0.500  2.696036  154.455  132.414  8.934277
  6694.185  6694.200  0.500  2.697500  154.498  132.738  8.943032
  6700.189  6700.200  0.500  2.707315  154.944  133.382  8.898657
  6706.192  6706.200  0.500  2.741871  154.971  133.72  8.618227
  6707.086  6707.100  0.500  2.752671  154.993  133.755  8.527896
  6707.985  6708.000  0.500  2.766460  154.967  133.768  8.411927
  6708.888  6708.900  0.500  2.785657  154.951  133.878  8.258751
  6709.785  6709.800  0.500  2.811009  154.946  133.851  8.050379
  6710.687  6710.700  0.500  2.842217  154.939  133.932  7.807736
  6711.595  6711.600  0.500  2.872262  154.985  134.038  7.582646
  6712.489  6712.500  0.500  2.909982  154.963  134.026  7.301317
  6713.387  6713.400  0.500  2.966473  154.948  134.035  6.900745
  6714.297  6714.300  0.500  3.042532  154.944  134.081  6.397533
  6715.195  6715.200  0.500  3.140347  154.978  134.207  5.806825
  6716.093  6716.100  0.500  3.283126  154.978  134.174  5.032973
  6716.995  6717.000  0.500  3.502082  154.954  134.255  4.045710
  6717.897  6717.900  0.500  3.811456  154.981  134.323  2.970683
  6718.799  6718.800  0.500  4.209160  154.966  134.343  1.996187
  6719.702  6719.700  0.500  4.634487  154.968  134.375  1.304923
  6720.595  6720.600  0.500  5.021538  154.956  134.396  0.886257
  6721.498  6721.500  0.500  5.281386  154.965  134.475  0.683858
  6722.404  6722.400  0.500  5.350260  154.934  134.443  0.638192
  6723.298  6723.300  0.500  5.228603  154.966  134.578  0.721472
  6724.192  6724.200  0.500  4.982935  154.992  134.644  0.922839
  6725.102  6725.100  0.500  4.698359  154.979  134.653  1.226721
  6725.999  6726.000  0.500  4.424654  154.976  134.741  1.613979
  6726.898  6726.900  0.500  4.196512  154.995  134.794  2.028380
  6727.801  6727.800  0.500  4.011478  155.002  134.823  2.441188
  6728.697  6728.700  0.500  3.879229  154.994  134.882  2.787570
  6729.598  6729.600  0.500  3.789966  154.965  134.887  3.047966
  6730.500  6730.500  0.500  3.736526  155.002  134.95  3.216764
  6731.400  6731.400  0.500  3.706384  154.998  134.928  3.314656
  6732.305  6732.300  0.500  3.689261  154.992  135.058  3.375159
  6733.201  6733.200  0.500  3.678806  154.989  135.097  3.411613
  6734.099  6734.100  0.500  3.670122  154.971  135.1  3.441447
  6735.004  6735.000  0.500  3.662866  154.983  135.169  3.468278
  6735.905  6735.900  0.500  3.656656  154.954  135.208  3.490893
  6736.801  6736.800  0.500  3.651841  154.998  135.25  3.508828
  6737.697  6737.700  0.500  3.647697  154.993  135.29  3.524436
  6738.602  6738.600  0.500  3.644748  155.002  135.358  3.536640
  6739.502  6739.500  0.500  3.642563  154.996  135.392  3.545272
  6740.401  6740.400  0.500  3.641336  154.995  135.43  3.550607
  6741.199  6741.200  0.500  3.641791  154.977  135.395  3.548067
  6744.222  6744.210  0.500  3.652009  154.964  135.558  3.516246
  6747.384  6747.400  0.500  3.696165  154.934  135.749  3.369080
  6750.748  6750.760  0.500  3.772862  154.927  135.961  3.125224
  6754.277  6754.280  0.500  3.843383  154.933  136.072  2.914794
  6757.983  6757.980  0.500  3.865341  154.943  136.264  2.855525
  6761.854  6761.850  0.500  3.817217  154.957  136.46  3.000610
  6765.901  6765.900  0.500  3.742573  154.948  136.655  3.237777
  6770.112  6770.110  0.500  3.692882  155.473  137.321  3.419312
  6774.493  6774.490  0.500  3.674410  155.5  137.52  3.488101
  6779.064  6779.050  0.500  3.671638  155.487  137.822  3.505481
  6783.786  6783.780  0.500  3.672480  155.515  137.995  3.506911
  6788.686  6788.680  0.500  3.677245  155.569  138.302  3.498012
  6793.766  6793.750  0.500  3.688011  154.897  137.923  3.451058
  6798.999  6798.990  0.500  3.700157  155.142  138.378  3.420661
  6804.420  6804.410  0.500  3.697580  155.364  138.904  3.442509
  6809.998  6809.990  0.500  3.693799  154.983  138.748  3.451670
  6815.753  6815.750  0.500  3.686406  155.095  139.237  3.489545
  6821.686  6821.680  0.500  3.675707  155.053  139.422  3.531771
  6827.789  6827.780  0.500  3.662981  154.864  139.554  3.580385
  6834.053  6834.050  0.500  3.647577  155.015  139.983  3.647131
  6840.498  6840.490  0.500  3.626498  144.889  131.132  3.489317
  6847.108  6847.100  0.500  3.615633  154.66  140.287  3.773701
  6853.896  6853.890  0.500  3.620210  154.738  140.678  3.766935
  6860.865  6860.850  0.500  3.625075  154.607  140.875  3.753922
  6867.980  6867.970  0.500  3.627329  154.847  141.41  3.759694
  6875.281  6875.270  0.500  3.615450  154.853  141.803  3.815190
  6882.762  6882.750  0.500  3.594618  154.853  142.162  3.905362
  6890.397  6890.390  0.500  3.581954  154.864  142.515  3.964949
  6898.212  6898.200  0.500  3.577827  154.835  142.864  3.991093
  6906.204  6906.190  0.500  3.573796  154.754  143.168  4.015748
  6914.362  6914.350  0.500  3.563994  154.578  143.375  4.061154
  6922.682  6922.670  0.500  3.548263  154.409  143.615  4.132468
  6931.188  6931.170  0.500  3.532743  154.315  143.938  4.206540
  6939.867  6939.850  0.500  3.522213  154.23  144.266  4.260762
  6948.703  6948.690  0.500  3.516343  154.164  144.613  4.296138
  6957.710  6957.700  0.500  3.510245  154.086  144.882  4.330461
  6966.905  6966.890  0.500  3.499563  154.032  145.326  4.390384
  6976.263  6976.250  0.500  3.485759  153.931  145.626  4.460610
  6985.789  6985.770  0.500  3.470838  153.831  145.95  4.537714
  6995.483  6995.470  0.500  3.460831  153.696  146.335  4.595440
  7005.360  7005.350  0.500  3.452636  153.603  146.624  4.642417
  7015.407  7015.390  0.500  3.440480  153.438  146.982  4.710669
  7025.611  7025.600  0.500  3.427026  153.305  147.286  4.784340
  7036.000  7035.990  0.500  3.412851  153.125  147.581  4.862357
  7046.563  7046.550  0.500  3.397982  152.963  147.887  4.945433
  7057.291  7057.280  0.500  3.386261  152.788  148.171  5.013374
  7068.188  7068.180  0.500  3.375534  152.615  148.515  5.079193
  7079.265  7079.250  0.500  3.363728  152.309  148.704  5.146054
  7090.497  7090.490  0.500  3.350062  152.103  148.981  5.226588
  7101.907  7101.910  0.500  3.335053  151.852  149.258  5.315477
  7113.493  7113.490  0.500  3.319970  151.349  149.272  5.396752
  7125.250  7125.250  0.500  3.306081  150.818  149.246  5.471293
  7137.188  7137.180  0.500  3.292554  150.122  149.088  5.539916
  7149.289  7149.280  0.500  3.278465  149.989  149.491  5.633714
  7161.553  7161.550  0.500  3.263858  149.695  149.723  5.725483
  7173.997  7173.990  0.500  3.248401  149.254  149.789  5.817228
  7186.619  7186.610  0.500  3.232778  148.812  149.86  5.911638
  7199.397  7199.390  0.500  3.216446  148.354  149.94  6.012199
  7212.363  7212.350  0.500  3.201171  147.831  149.906  6.103366
  7225.489  7225.480  0.500  3.186978  147.419  150.005  6.194691
  7238.798  7238.780  0.500  3.172330  147.443  150.613  6.311542
  7252.268  7252.250  0.500  3.155381  146.844  150.594  6.418640
  7265.932  7265.900  0.500  3.136841  143.206  147.407  6.400373
  7279.750  7279.710  0.500  3.121374  146.582  151.397  6.676080
  7289.038  7289.020  0.500  3.112247  146.177  151.316  6.733713

File: Sm-L3-Sm2Ti2O7.xdi
# XDI/1.0 BlueSky/1.10.0 BMM/2023-1.0-py310-tiled
# Beamline.name: BMM (06BM) -- Beamline for Materials Measurement (NIST)
# Beamline.xray_source: NSLS-II three-pole wiggler
# Beamline.collimation: paraboloid mirror, 5 nm Rh on 30 nm Pt
# Beamline.focusing: not in use
# Beamline.harmonic_rejection: flat mirror, Si stripe, pitch = 7.0 mrad relative to beam
# Beamline.software: Bluesky 1.10.0, Ophyd 1.7.0, DataBroker 2.0.0b13, Python 3.10.8, 2023-1.0-py310-tiled
# Detector.I0: 10 cm N2
# Detector.I1: 25 cm N2
# Detector.I2: 25 cm N2
# Element.symbol: Sm
# Element.edge: L3
# Element.reference: Sm
# Element.reference_material: Sm2O3
# Facility.name: NSLS-II
# Facility.energy: 3.0
# Facility.current: 400.2
# Facility.mode: top-off
# Facility.GUP: 123456
# Facility.SAF: 301027
# Facility.cycle: 2023-2
# Mono.name: Si(111)
# Mono.d_spacing: 3.13519
# Mono.encoder_resolution: 0.0000050 deg/ct
# Mono.angle_offset: 16.0754 deg
# Mono.scan_mode: pseudo channel cut
# Mono.scan_type: step
# Mono.direction: forward in energy
# Sample.name: Sm2Ti2O7
# Sample.prep: Powder in PEG pellet
# Sample.x: 149.848 mm
# Sample.y: 114.690 mm
# Sample.SDD_position: 205.000 mm
# Scan.experimenters: Bruce Ravel
# Scan.edge_energy: 6716.2
# Scan.start_time: 2023-05-08T17:18:15
# Scan.end_time: 2023-05-08T17:24:16
# Scan.transient_id: 75439
# Scan.uid: 8e06aea0-65bd-4882-b850-229de59ca69b
# Scan.plot_hint: ln(I0/It)  --  ln($5/$6)
# Column.1: energy eV
# Column.2: requested_energy eV
# Column.3: measurement_time seconds
# Column.4: xmu
# Column.5: I0 nA
# Column.6: It nA
# Column.7: Ir nA
# ///////////
# sample courtesy Martin Stennett, University of Sheffield
# -----------
# energy  requested_energy  measurement_time  xmu  I0  It  Ir
  6516.203  6516.200  0.500  1.378892  150.992  38.0284  3.231670
  6536.220  6536.200  0.500  1.360569  151.381  38.8314  3.368812
  6556.214  6556.200  0.500  1.343019  151.666  39.5934  3.504871
  6576.214  6576.200  0.500  1.325141  152.016  40.4005  3.648567
  6596.215  6596.200  0.500  1.308181  152.306  41.1699  3.793685
  6616.214  6616.200  0.500  1.291093  152.582  41.9556  3.943168
  6636.209  6636.200  0.500  1.274155  152.844  42.7455  4.095637
  6656.199  6656.200  0.500  1.257938  153.059  43.5055  4.243881
  6676.193  6676.200  0.500  1.242144  153.258  44.2555  4.382370
  6688.197  6688.200  0.500  1.232351  153.38  44.7267  4.448890
  6692.196  6692.200  0.500  1.230242  153.394  44.825  4.454904
  6696.198  6696.200  0.500  1.226779  153.404  44.9836  4.455493
  6700.195  6700.200  0.500  1.224417  153.425  45.0961  4.432510
  6704.196  6704.200  0.500  1.222126  153.444  45.2052  4.368692
  6706.687  6706.700  0.500  1.222319  153.448  45.1974  4.276811
  6707.683  6707.700  0.500  1.221912  153.445  45.2151  4.222229
  6708.683  6708.700  0.500  1.222355  153.448  45.1959  4.143020
  6709.686  6709.700  0.500  1.223108  153.452  45.1631  4.035103
  6710.690  6710.700  0.500  1.224177  153.445  45.1128  3.909980
  6711.686  6711.700  0.500  1.225183  153.452  45.0694  3.791286
  6712.689  6712.700  0.500  1.227466  153.455  44.9677  3.619519
  6713.691  6713.700  0.500  1.230203  153.455  44.8446  3.388011
  6714.691  6714.700  0.500  1.234279  153.455  44.6624  3.103239
  6715.689  6715.700  0.500  1.240469  153.454  44.3863  2.741151
  6716.698  6716.700  0.500  1.251000  153.447  43.9194  2.248612
  6717.689  6717.700  0.500  1.265189  153.442  43.2993  1.729034
  6718.696  6718.700  0.500  1.282961  153.439  42.5355  1.262552
  6719.698  6719.700  0.500  1.300034  153.417  41.8097  0.960713
  6720.698  6720.700  0.500  1.312702  153.418  41.2836  0.797935
  6721.695  6721.700  0.500  1.318565  153.425  41.0442  0.736252
  6722.701  6722.700  0.500  1.316083  153.418  41.1442  0.749324
  6723.696  6723.700  0.500  1.308556  153.422  41.4562  0.823790
  6724.698  6724.700  0.500  1.297112  153.438  41.9376  0.957174
  6725.699  6725.700  0.500  1.284707  153.439  42.4613  1.136655
  6726.701  6726.700  0.500  1.273256  153.441  42.951  1.340160
  6727.696  6727.700  0.500  1.264120  153.438  43.3444  1.537623
  6728.704  6728.700  0.500  1.257288  153.429  43.639  1.702945
  6729.699  6729.700  0.500  1.253030  153.426  43.8243  1.816781
  6730.699  6730.700  0.500  1.249735  153.496  43.989  1.886788
  6731.702  6731.700  0.500  1.247018  153.708  44.1695  1.928718
  6732.702  6732.700  0.500  1.245000  153.697  44.2556  1.952472
  6733.701  6733.700  0.500  1.242575  153.687  44.3603  1.971299
  6734.703  6734.700  0.500  1.241329  153.684  44.4146  1.985502
  6735.704  6735.700  0.500  1.240478  153.683  44.4522  1.996941
  6736.704  6736.700  0.500  1.239801  153.67  44.4785  2.005398
  6737.699  6737.700  0.500  1.239528  153.668  44.4902  2.012846
  6738.703  6738.700  0.500  1.239845  153.659  44.4735  2.016550
  6739.705  6739.700  0.500  1.240311  153.669  44.4555  2.018734
  6740.698  6740.700  0.500  1.240737  153.662  44.4345  2.018882
  6742.194  6742.190  0.500  1.240762  153.656  44.4318  2.015908
  6744.218  6744.210  0.500  1.239480  153.663  44.4908  2.004408
  6746.328  6746.320  0.500  1.237904  153.655  44.5587  1.967888
  6748.506  6748.500  0.500  1.237218  153.646  44.5865  1.906316
  6750.748  6750.760  0.500  1.236943  153.617  44.5905  1.834278
  6753.082  6753.090  0.500  1.237362  153.623  44.5736  1.769787
  6755.498  6755.500  0.500  1.236468  153.619  44.6121  1.730412
  6757.981  6757.980  0.500  1.234458  153.621  44.7025  1.729726
  6760.544  6760.540  0.500  1.232218  153.609  44.7994  1.768661
  6763.186  6763.180  0.500  1.228901  153.614  44.9496  1.835522
  6765.911  6765.900  0.500  1.224818  153.619  45.1351  1.909654
  6768.700  6768.690  0.500  1.221260  153.624  45.2973  1.966508
  6771.554  6771.550  0.500  1.217785  153.625  45.4553  2.002184
  6774.493  6774.490  0.500  1.215295  153.642  45.5736  2.019722
  6777.517  6777.510  0.500  1.213028  153.65  45.6795  2.028116
  6780.623  6780.610  0.500  1.211754  153.676  45.7455  2.031159
  6783.788  6783.780  0.500  1.210568  153.686  45.8027  2.032328
  6787.040  6787.030  0.500  1.209333  153.719  45.869  2.031350
  6790.359  6790.350  0.500  1.207384  153.752  45.9686  2.028658
  6793.756  6793.750  0.500  1.204007  152.459  45.7361  2.007646
  6797.237  6797.230  0.500  1.201205  152.857  45.9841  2.003526
  6800.790  6800.780  0.500  1.198093  153.372  46.2828  2.011955
  6804.418  6804.410  0.500  1.193979  153.449  46.497  2.024732
  6808.118  6808.110  0.500  1.191107  153.442  46.6287  2.034178
  6811.892  6811.890  0.500  1.189966  144.721  44.0286  1.917387
  6815.757  6815.750  0.500  1.187115  153.301  46.7723  2.053561
  6819.691  6819.680  0.500  1.184772  153.378  46.9055  2.069038
  6823.697  6823.690  0.500  1.181963  142.599  43.7316  1.938208
  6827.793  6827.780  0.500  1.178411  153.163  47.1385  2.103890
  6831.953  6831.940  0.500  1.175020  153.273  47.3326  2.128132
  6836.183  6836.180  0.500  1.171407  153.297  47.5115  2.156209
  6840.500  6840.490  0.500  1.167568  142.268  44.2629  2.033290
  6844.894  6844.880  0.500  1.164665  152.753  47.6631  2.199935
  6849.357  6849.350  0.500  1.162155  152.932  47.8388  2.208740
  6853.898  6853.890  0.500  1.159433  152.972  47.982  2.209562
  6858.522  6858.510  0.500  1.156707  152.99  48.1183  2.210516
[...]
  6898.216  6898.200  0.500  1.127058  153.069  49.5922  2.353124
  6903.522  6903.510  0.500  1.123822  153.039  49.7429  2.364473
  6908.899  6908.890  0.500  1.119865  152.965  49.916  2.380545
  6914.364  6914.350  0.500  1.116281  152.834  50.0525  2.399231
  6919.892  6919.880  0.500  1.112240  152.711  50.2147  2.426057
  6925.505  6925.490  0.500  1.108363  152.643  50.3874  2.453638
  6931.184  6931.170  0.500  1.104358  152.577  50.5677  2.480013
  6936.952  6936.940  0.500  1.099684  152.525  50.7873  2.505582
  6942.779  6942.770  0.500  1.095680  152.469  50.9721  2.523082
  6948.705  6948.690  0.500  1.091261  152.381  51.1684  2.539344
  6954.690  6954.680  0.500  1.086918  152.321  51.3708  2.555946
  6960.761  6960.750  0.500  1.082985  152.261  51.5531  2.575341
  6966.903  6966.890  0.500  1.079077  152.22  51.7408  2.598926
  6973.123  6973.110  0.500  1.075030  152.189  51.9402  2.627333
  6979.412  6979.400  0.500  1.071188  152.096  52.1083  2.654173
  6985.776  6985.770  0.500  1.066715  152.021  52.3161  2.683656
  6992.232  6992.220  0.500  1.061856  151.953  52.5473  2.708485
  6998.759  6998.750  0.500  1.057469  151.841  52.7396  2.727419
  7005.365  7005.350  0.500  1.052907  151.753  52.9501  2.749235
  7012.033  7012.020  0.500  1.048666  151.647  53.1377  2.775989
  7018.785  7018.770  0.500  1.044525  151.564  53.3293  2.805275
  7025.614  7025.600  0.500  1.040072  151.465  53.5322  2.835222
  7032.521  7032.510  0.500  1.035355  151.35  53.7445  2.866125
  7039.501  7039.490  0.500  1.030636  151.233  53.9568  2.900419
  7046.561  7046.550  0.500  1.025836  151.091  54.1656  2.932755
  7053.687  7053.680  0.500  1.020843  150.968  54.3925  2.962568
  7060.901  7060.890  0.500  1.015978  150.875  54.6242  2.991278
  7068.190  7068.180  0.500  1.011178  150.699  54.8228  3.018742
  7075.548  7075.540  0.500  1.006669  149.144  54.5022  3.017121
  7082.977  7082.980  0.500  1.001665  149.116  54.7655  3.052770
  7090.490  7090.490  0.500  0.997059  150.173  55.4085  3.108824
  7098.082  7098.080  0.500  0.992068  150.702  55.8817  3.159811
  7105.753  7105.750  0.500  0.986996  150.532  56.1023  3.197526
  7113.493  7113.490  0.500  0.982309  150.115  56.2101  3.227715
  7121.315  7121.310  0.500  0.977524  149.756  56.3444  3.257607
  7129.213  7129.210  0.500  0.972612  149.25  56.4305  3.285790
  7137.184  7137.180  0.500  0.967691  148.91  56.5796  3.317686
  7145.240  7145.230  0.500  0.962436  148.794  56.8334  3.356453
  7153.360  7153.350  0.500  0.957427  148.656  57.0658  3.394977
  7161.566  7161.550  0.500  0.952543  148.428  57.2574  3.431847
  7169.838  7169.830  0.500  0.947611  148.1  57.4132  3.467311
  7178.188  7178.180  0.500  0.942774  147.842  57.5911  3.506403
  7186.632  7186.610  0.500  0.937538  147.576  57.7893  3.546409
  7195.139  7195.110  0.500  0.932253  147.203  57.9486  3.586618
  7203.704  7203.690  0.500  0.926661  146.931  58.1659  3.628183
  7212.368  7212.350  0.500  0.921145  146.565  58.3422  3.667310
  7221.108  7221.090  0.500  0.916112  146.22  58.4984  3.704284
  7229.927  7229.900  0.500  0.910716  146.055  58.7485  3.748323
  7238.774  7238.780  0.500  0.905356  145.706  58.9231  3.787878
  7247.726  7247.740  0.500  0.900358  145.294  59.051  3.828860
  7256.774  7256.780  0.500  0.895081  145.127  59.2952  3.880443
  7265.905  7265.900  0.500  0.889560  143.995  59.1584  3.903794
  7275.078  7275.090  0.500  0.884637  144.843  59.8006  3.983092
  7284.349  7284.360  0.500  0.878775  142.255  59.0771  3.968842
  7289.029  7289.020  0.500  0.876143  144.559  60.1923  4.055777