Folder: webxdiviewer/xdidata/Data/Sr

Note: xdidata/README.md
# bmm-standards
A pretty webpage for BMM's collection of common XAFS materials

[BMM's common materials collection](./BMM-standards.html)

Plotting of the data will happen soon.

Periodic table adapted from [some guy named Daniel](https://codepen.io/gooseofmusic/pen/PjKdNQ)

[This](https://www.coderstool.com/scss-to-css) is a helpful tool for
dealing with Sassy CSS.

File: Sr-K-StrontiumTitanate.xdi
# XDI/1.0 BlueSky/1.10.0 BMM/2023-1.0-py310-tiled
# Beamline.name: BMM (06BM) -- Beamline for Materials Measurement (NIST)
# Beamline.xray_source: NSLS-II three-pole wiggler
# Beamline.collimation: paraboloid mirror, 5 nm Rh on 30 nm Pt
# Beamline.focusing: not in use
# Beamline.harmonic_rejection: flat mirror, Pt stripe, pitch = 7.0 mrad relative to beam
# Beamline.software: Bluesky 1.10.0, Ophyd 1.7.0, DataBroker 2.0.0b13, Python 3.10.8, 2023-1.0-py310-tiled
# Detector.I0: 10 cm N2
# Detector.I1: 25 cm N2
# Detector.I2: 25 cm N2
# Element.symbol: Sr
# Element.edge: K
# Element.reference: Sr
# Element.reference_material: SrTiO3
# Facility.name: NSLS-II
# Facility.energy: 3.0
# Facility.current: 400.7
# Facility.mode: top-off
# Facility.GUP: 301027
# Facility.SAF: 310583
# Facility.cycle: 2023-2
# Mono.name: Si(111)
# Mono.d_spacing: 3.13519
# Mono.encoder_resolution: 0.0000050 deg/ct
# Mono.angle_offset: 16.0754 deg
# Mono.scan_mode: pseudo channel cut
# Mono.scan_type: step
# Mono.direction: forward in energy
# Sample.name: SrTiO3
# Sample.prep: PEG pellet
# Sample.x: 109.138 mm
# Sample.y: 153.150 mm
# Sample.SDD_position: 205.000 mm
# Scan.experimenters: Bruce Ravel
# Scan.edge_energy: 16104.6
# Scan.start_time: 2023-05-28T21:46:57
# Scan.end_time: 2023-05-28T21:54:39
# Scan.transient_id: 79043
# Scan.uid: 1726707c-3c5f-4bdf-900f-8e550f634988
# Scan.plot_hint: ln(It/Ir)  --  ln($6/$7)
# Column.1: energy eV
# Column.2: requested_energy eV
# Column.3: measurement_time seconds
# Column.4: xmu
# Column.5: I0 nA
# Column.6: It nA
# Column.7: Ir nA
# ///////////
# sample courtesy Martin Stennett, University of Sheffield
# -----------
# energy  requested_energy  measurement_time  xmu  I0  It  Ir
  15904.582  15904.600  0.500  0.218742  22.5446  41.4003  33.2664
  15934.625  15934.600  0.500  0.217713  22.4147  41.1769  33.1209
  15964.649  15964.600  0.500  0.216855  22.2547  40.8985  32.9252
  15994.665  15994.600  0.500  0.215718  22.099  40.6259  32.743
  16024.648  16024.600  0.500  0.214921  21.7599  40.0118  32.2737
  16054.575  16054.600  0.500  0.214302  21.7735  40.0521  32.3262
  16076.494  16076.600  0.500  0.214579  21.5997  39.7439  32.0686
  16082.496  16082.600  0.500  0.214861  21.6248  39.7926  32.0988
  16088.525  16088.600  0.500  0.215550  21.5894  39.7287  32.0252
  16094.536  16094.600  0.500  0.216932  21.5585  39.6766  31.9391
  16095.398  16095.500  0.500  0.217165  21.5572  39.6735  31.9291
  16096.306  16096.400  0.500  0.217487  21.546  39.6512  31.9009
  16097.236  16097.300  0.500  0.217832  21.5391  39.6431  31.8834
  16098.167  16098.200  0.500  0.218219  21.535  39.627  31.8581
  16099.030  16099.100  0.500  0.218746  21.5213  39.6097  31.8274
  16099.927  16100.000  0.500  0.219335  21.5114  39.5856  31.7893
  16100.824  16100.900  0.500  0.220051  21.5005  39.5675  31.7521
  16101.766  16101.800  0.500  0.220978  21.4952  39.5596  31.7163
  16102.663  16102.700  0.500  0.221936  21.4993  39.5662  31.6912
  16103.561  16103.600  0.500  0.223252  21.4996  39.5708  31.6532
  16104.447  16104.500  0.500  0.224802  21.4941  39.5601  31.5957
  16105.378  16105.400  0.500  0.227065  21.489  39.5516  31.5174
  16106.287  16106.300  0.500  0.230239  21.4873  39.5533  31.4189
  16107.162  16107.200  0.500  0.234356  21.4734  39.5221  31.2651
  16108.105  16108.100  0.500  0.240385  21.4808  39.5358  31.088
  16108.980  16109.000  0.500  0.248037  21.4718  39.5228  30.8409
  16109.935  16109.900  0.500  0.258100  21.4667  39.5121  30.5238
  16110.788  16110.800  0.500  0.270235  21.4628  39.5067  30.1515
  16111.709  16111.700  0.500  0.287322  21.4528  39.4916  29.6293
  16112.573  16112.600  0.500  0.308621  21.4483  39.4882  29.0024
  16113.517  16113.500  0.500  0.334998  21.4424  39.4704  28.2347
  16114.404  16114.400  0.500  0.360737  21.4394  39.4665  27.5146
  16115.314  16115.300  0.500  0.386646  21.4256  39.449  26.7989
  16116.213  16116.200  0.500  0.412755  21.4195  39.4324  26.0973
  16117.100  16117.100  0.500  0.441249  21.4165  39.4282  25.3615
  16118.010  16118.000  0.500  0.469358  21.4135  39.4269  24.6577
  16118.887  16118.900  0.500  0.486868  21.4032  39.4076  24.2179
  16119.808  16119.800  0.500  0.488705  21.4054  39.4107  24.1753
  16120.685  16120.700  0.500  0.476078  21.4568  39.5018  24.5391
  16121.607  16121.600  0.500  0.453684  21.4433  39.4737  25.077
  16122.472  16122.500  0.500  0.430127  21.414  39.4302  25.6465
  16123.383  16123.400  0.500  0.406674  21.3922  39.3823  26.2232
  16124.271  16124.300  0.500  0.386953  21.3854  39.3702  26.7372
  16125.182  16125.200  0.500  0.371678  21.4124  39.4175  27.1814
  16126.093  16126.100  0.500  0.361639  21.4202  39.437  27.4692
  16126.959  16127.000  0.500  0.355922  21.4265  39.4469  27.6336
  16127.893  16127.900  0.500  0.353460  21.4236  39.4413  27.6978
  16128.782  16128.800  0.500  0.354126  21.4159  39.4303  27.6717
  16129.614  16129.600  0.500  0.356905  21.4092  39.4191  27.587
  16132.623  16132.610  0.500  0.366966  21.389  39.3793  27.2833
  16135.827  16135.800  0.500  0.362774  21.3719  39.3571  27.3825
  16139.169  16139.160  0.500  0.361562  21.3591  39.3305  27.3972
  16142.695  16142.680  0.500  0.371115  21.3355  39.2924  27.1103
  16146.383  16146.380  0.500  0.385108  21.2891  39.2044  26.6738
  16150.266  16150.250  0.500  0.399579  21.3072  39.2365  26.3121
  16154.323  16154.300  0.500  0.389396  21.2857  39.1947  26.553
  16158.508  16158.510  0.500  0.374585  21.2672  39.1627  26.9273
  16162.924  16162.890  0.500  0.385031  21.2446  39.1277  26.6237
  16167.468  16167.450  0.500  0.388286  21.2299  39.1044  26.5213
  16172.209  16172.180  0.500  0.370395  21.1863  39.025  26.9453
  16177.057  16177.080  0.500  0.362391  21.1707  39.0012  27.1452
  16182.171  16182.150  0.500  0.359530  21.1561  38.9729  27.2032
  16187.403  16187.390  0.500  0.366686  21.1245  38.9147  26.969
  16192.823  16192.810  0.500  0.377694  21.0999  38.8713  26.6439
  16198.407  16198.390  0.500  0.380695  21.0605  38.8057  26.5193
  16204.179  16204.150  0.500  0.382640  21.0401  38.7625  26.4383
  16210.058  16210.080  0.500  0.375155  21.0119  38.7211  26.6085
  16216.184  16216.180  0.500  0.368238  20.9817  38.6672  26.7559
  16222.464  16222.450  0.500  0.364278  20.9428  38.5968  26.8132
  16228.888  16228.890  0.500  0.361403  20.9032  38.5248  26.8402
  16235.513  16235.500  0.500  0.363563  20.8292  38.3934  26.6909
  16242.306  16242.290  0.500  0.366609  20.838  38.4073  26.6193
  16249.243  16249.250  0.500  0.371206  20.804  38.3436  26.4533
  16256.394  16256.370  0.500  0.371707  20.74  38.2376  26.367
  16263.679  16263.670  0.500  0.366168  20.7365  38.2269  26.506
  16271.168  16271.150  0.500  0.362369  20.6988  38.1681  26.566
  16278.803  16278.790  0.500  0.362574  20.6533  38.0848  26.5026
  16286.619  16286.600  0.500  0.364696  20.6188  38.0252  26.405
  16294.630  16294.590  0.500  0.363445  20.5734  37.9471  26.3838
  16302.753  16302.750  0.500  0.362940  20.5299  37.8652  26.3401
  16311.082  16311.070  0.500  0.363887  20.4924  37.8006  26.2703
  16319.560  16319.570  0.500  0.363951  20.4537  37.7287  26.2186
  16328.268  16328.250  0.500  0.362634  20.4004  37.6411  26.1922
  16337.080  16337.090  0.500  0.359123  20.3628  37.5753  26.2384
  16346.112  16346.100  0.500  0.358904  20.3176  37.4904  26.1849
  16355.283  16355.290  0.500  0.360171  20.2695  37.4062  26.0929
  16364.687  16364.650  0.500  0.360511  20.2219  37.3219  26.0253
  16374.196  16374.170  0.500  0.359657  20.0983  37.0958  25.8897
  16383.881  16383.870  0.500  0.357766  20.1287  37.1511  25.9774
  16393.777  16393.750  0.500  0.357095  20.0764  37.0629  25.9331
  16403.804  16403.790  0.500  0.355994  20.0017  36.9299  25.8686
  16414.019  16414.000  0.500  0.354626  19.9802  36.8901  25.876
  16424.390  16424.390  0.500  0.355181  19.9259  36.7967  25.7962
  16434.987  16434.950  0.500  0.356397  19.9266  36.8011  25.7679
  16445.692  16445.680  0.500  0.355252  19.8575  36.6802  25.7127
  16456.589  16456.580  0.500  0.353099  19.8274  36.6294  25.7325
  16467.703  16467.650  0.500  0.352522  19.7794  36.5401  25.6845
  16478.916  16478.890  0.500  0.351967  19.7178  36.4357  25.6253
  16490.322  16490.310  0.500  0.351461  19.6655  36.3373  25.5691
  16501.900  16501.890  0.500  0.350891  19.6037  36.2288  25.5073
  16513.685  16513.650  0.500  0.350729  19.5516  36.1344  25.445
  16525.582  16525.580  0.500  0.349909  19.4903  36.024  25.388
  16537.725  16537.680  0.500  0.348965  19.4294  35.9151  25.3351
  16549.970  16549.950  0.500  0.347737  19.3643  35.7995  25.2846
  16562.413  16562.390  0.500  0.347056  19.3052  35.6961  25.2288
  16575.056  16575.010  0.500  0.346601  19.2498  35.5978  25.1707
  16587.814  16587.790  0.500  0.346077  19.1847  35.4827  25.1025
  16600.774  16600.750  0.500  0.345425  19.1212  35.3722  25.0407
  16613.923  16613.880  0.500  0.344313  19.0573  35.2514  24.9829
  16627.215  16627.180  0.500  0.343670  18.9913  35.1359  24.9171
  16640.673  16640.650  0.500  0.342871  18.927  35.0234  24.8571
  16654.288  16654.300  0.500  0.341937  18.8558  34.8986  24.7917
  16668.155  16668.110  0.500  0.341197  18.7839  34.7671  24.7166
  16682.156  16682.100  0.500  0.340435  18.7104  34.6332  24.6401
  16696.291  16696.260  0.500  0.339699  18.6206  34.4696  24.5418
  16710.621  16710.590  0.500  0.338899  18.3704  34.02  24.2411
  16725.148  16725.090  0.500  0.338208  18.6082  34.4607  24.5721
  16739.847  16739.760  0.500  0.337220  18.5043  34.2708  24.4608
  16754.622  16754.600  0.500  0.336180  18.415  34.109  24.3707
  16769.632  16769.620  0.500  0.335617  18.3311  33.9632  24.2802
  16784.806  16784.800  0.500  0.334620  18.2495  33.8128  24.1967
  16800.192  16800.160  0.500  0.333876  18.1531  33.6424  24.0928
  16815.731  16815.690  0.500  0.332986  18.0666  33.4835  24.0003
  16831.423  16831.390  0.500  0.332116  17.6572  32.7273  23.4787
  16847.269  16847.260  0.500  0.331338  18.0473  33.4598  24.0228
  16863.382  16863.310  0.500  0.330278  17.805  33.0135  23.7276
  16879.576  16879.520  0.500  0.329579  17.8455  33.0968  23.8041
  16895.989  16895.910  0.500  0.328678  17.751  32.9221  23.6998
  16912.522  16912.470  0.500  0.327980  17.6305  32.7043  23.5594
  16929.301  16929.200  0.500  0.327104  17.5688  32.5956  23.5017
  16946.151  16946.100  0.500  0.326070  17.1784  31.8749  23.0059
  16957.538  16957.460  0.500  0.325358  17.5493  32.5633  23.5195