Folder: webxdiviewer/xdidata/Data/Ti (part 3)

File: Ti-K-NiTiO3.xdi
# XDI/1.0 BlueSky/1.5.0
# Beamline.name: 6BM
# Beamline.xray_source: NSLS-II three-pole wiggler
# Beamline.collimation: paraboloid mirror, 5 nm Rh on 30 nm Pt
# Beamline.focusing: not in use
# Beamline.harmonic_rejection: flat mirror, Si stripe, pitch = 7.0 mrad relative to beam
# Detector.i0: 10 cm N2
# Detector.i1: 25 cm N2
# Detector.i2: 25 cm N2
# Element.symbol: Ti
# Element.edge: K
# Facility.name: NSLS-II
# Facility.energy: 3.0
# Facility.current: 219.6
# Facility.mode: top-off
# Facility.gup: 301027
# Facility.saf: 304156
# Mono.name: Si(111)
# Mono.d_spacing: 3.13526
# Mono.encoder_resolution: 0.0000050 deg/ct
# Mono.angle_offset: 16.0571 deg
# Mono.scan_mode: pseudo channel cut
# Mono.scan_type: step
# Mono.direction: forward in energy
# Sample.name: NiTiO3
# Sample.prep: Powder in polyethylene glycol pellet
# Sample.x_position: -97.532 mm
# Sample.y_position: 117.543 mm
# Sample.wheel_position: -510.000 mm
# Scan.experimenters: Bruce Ravel, Martin Stennett
# Scan.edge_energy: 4966.0
# Scan.start_time: 2019-05-29T23:21:34
# Scan.end_time: 2019-05-30T00:04:18
# Scan.transient_id: 9770
# Scan.uid: e68ce967-35fe-4a24-94db-a3b576784ae8
# Scan.plot_hint: ln(I0/It)  --  ln($5/$6)
# Scan.sequence: merge of 3 scans
# Column.1: energy eV
# Column.2: requested_energy eV
# Column.3: measurement_time seconds
# Column.4: mutrans
# Column.5: i0
# Column.6: itrans
# Column.7: irefer
# /////
#  sample disk prepared by Martin
# -----
# energy   requested_energy   measurement_time   mutrans   i0   itrans   irefer
4765.98 4766 0.500000 3.753255 11.0335 0.258660 0.021463
4796.01 4796 0.500000 3.696857 11.6732 0.289514 0.024497
4826.01 4826 0.500000 3.618195 12.4028 0.332785 0.029036
4856 4856 0.500000 3.541106 13.1097 0.379932 0.034406
4886 4886 0.500000 3.466218 13.7923 0.430801 0.040465
4916 4916 0.500000 3.392705 14.4484 0.485720 0.047191
4938 4938 0.500000 3.340603 14.9183 0.528342 0.052749
4944 4944 0.500000 3.327120 15.0316 0.539580 0.054252
4950.01 4950 0.500000 3.312859 15.1389 0.551240 0.055405
4956 4956 0.500000 3.300015 15.2327 0.561819 0.056952
4956.75 4956.75 0.500000 3.299026 15.2413 0.562697 0.057278
4957.49 4957.5 0.500000 3.297256 15.286 0.565344 0.057310
4958.24 4958.25 0.500000 3.295612 15.2991 0.566757 0.057512
4959 4959 0.500000 3.294042 15.3123 0.568140 0.057733
4959.75 4959.75 0.500000 3.292340 15.3264 0.569629 0.057789
4960.49 4960.5 0.500000 3.291169 15.3379 0.570725 0.057872
4961.25 4961.25 0.500000 3.290280 15.3543 0.571846 0.057593
4962 4962 0.500000 3.289283 15.3629 0.572738 0.057716
4962.75 4962.75 0.500000 3.288113 15.3797 0.574034 0.057239
4963.5 4963.5 0.500000 3.287434 15.4046 0.575356 0.056069
4964.25 4964.25 0.500000 3.286602 15.4339 0.576928 0.051382
4965 4965 0.500000 3.287315 15.4456 0.576953 0.041377
4965.75 4965.75 0.500000 3.290861 15.456 0.575300 0.040392
4966.5 4966.5 0.500000 3.306892 15.4693 0.566657 0.043958
4967.25 4967.25 0.500000 3.328781 15.473 0.554522 0.043766
4968 4968 0.500000 3.327053 15.4913 0.556123 0.042028
4968.75 4968.75 0.500000 3.405468 15.4965 0.514401 0.037146
4969.5 4969.5 0.500000 3.420321 15.5011 0.506906 0.035575
4970.25 4970.25 0.500000 3.368048 15.5213 0.534781 0.036909
4971 4971 0.500000 3.334493 15.5503 0.554101 0.037428
4971.75 4971.75 0.500000 3.326948 15.5724 0.559090 0.036101
4972.5 4972.5 0.500000 3.328486 15.5789 0.558462 0.034088
4973.25 4973.25 0.500000 3.326684 15.59 0.559864 0.031874
4974 4974 0.500000 3.334715 15.5981 0.555704 0.030067
4974.75 4974.75 0.500000 3.360333 15.602 0.541710 0.027751
4975.5 4975.5 0.500000 3.400853 15.6016 0.520243 0.025316
4976.25 4976.25 0.500000 3.454695 15.6023 0.492997 0.022978
4977 4977 0.500000 3.499134 15.5998 0.471507 0.021048
4977.75 4977.75 0.500000 3.523121 15.6431 0.461609 0.020281
4978.5 4978.5 0.500000 3.532276 15.652 0.457601 0.019493
4979.25 4979.25 0.500000 3.555934 15.6475 0.446843 0.018746
4980 4980 0.500000 3.595283 15.6372 0.429230 0.017841
4980.75 4980.75 0.500000 3.660479 15.6297 0.402079 0.016980
4981.5 4981.5 0.500000 3.731643 15.6318 0.374460 0.015589
4982.25 4982.25 0.500000 3.791779 15.6404 0.352752 0.014868
4983 4983 0.500000 3.829216 15.6399 0.339806 0.014025
4983.75 4983.75 0.500000 3.836839 15.6352 0.337121 0.014085
4984.5 4984.5 0.500000 3.828618 15.6325 0.339841 0.014373
4985.25 4985.25 0.500000 3.834143 15.634 0.337991 0.014458
4986 4986 0.500000 3.853876 15.6355 0.331437 0.014556
4986.75 4986.75 0.500000 3.877772 15.6654 0.324237 0.014337
4987.5 4987.5 0.500000 3.911927 15.6591 0.313243 0.014080
4988.25 4988.25 0.500000 3.958399 15.6704 0.299211 0.013352
4989 4989 0.500000 3.979975 15.7063 0.293491 0.013241
4989.75 4989.75 0.500000 3.955044 15.7408 0.301582 0.013513
4990.5 4990.5 0.500000 3.911103 15.7798 0.315842 0.013970
4991.25 4991.25 0.500000 3.878725 15.8043 0.326788 0.014705
4992 4992 0.500000 3.859560 15.8681 0.334447 0.015045
4992.75 4992.75 0.500000 3.844450 15.89 0.340004 0.015261
4993.5 4993.5 0.500000 3.831494 15.9032 0.344757 0.015613
4994.25 4994.25 0.500000 3.819658 15.918 0.349156 0.015673
4995 4995 0.500000 3.811223 15.9287 0.352361 0.015401
4995.75 4995.75 0.500000 3.806622 15.9338 0.354098 0.015471
4998.18 4998.18 0.730000 3.814467 23.2772 0.513274 0.021161
5001.58 5001.58 0.760000 3.856316 24.332 0.514526 0.020822
5005.16 5005.16 0.800000 3.816417 25.7894 0.567524 0.023700
5008.91 5008.91 0.840000 3.771721 27.2609 0.627320 0.028193
5012.83 5012.83 0.880000 3.708240 28.7287 0.704428 0.032176
5016.94 5016.93 0.910000 3.681671 29.8551 0.751774 0.035069
5021.19 5021.19 0.950000 3.663637 31.3567 0.803953 0.038226
5025.64 5025.63 0.990000 3.649613 32.8689 0.854625 0.040488
5030.24 5030.24 1.030000 3.651499 34.3822 0.892291 0.041577
5035.01 5035.01 1.060000 3.658587 35.5871 0.917042 0.040163
5039.97 5039.97 1.100000 3.670965 37.227 0.947503 0.040777
5045.09 5045.09 1.140000 3.668180 38.7973 0.990221 0.043855
5050.38 5050.38 1.180000 3.651929 40.3987 1.047981 0.049266
5055.84 5055.84 1.210000 3.632489 41.6745 1.102290 0.054346
5061.48 5061.48 1.250000 3.614483 43.3391 1.167155 0.057992
5067.29 5067.29 1.290000 3.604540 45.0319 1.224868 0.061846
5073.27 5073.27 1.330000 3.594225 46.8417 1.287301 0.066033
5079.42 5079.42 1.360000 3.583720 48.2309 1.339472 0.066716
5085.74 5085.74 1.400000 3.560063 50.006 1.422004 0.067569
5092.23 5092.23 1.440000 3.546382 51.8321 1.494251 0.069986
5098.9 5098.9 1.480000 3.530227 53.8151 1.576698 0.078900
5105.74 5105.74 1.510000 3.501254 55.3217 1.668486 0.088386
5112.74 5112.74 1.550000 3.480270 57.2051 1.761856 0.093803
5119.92 5119.92 1.590000 3.465097 59.1294 1.848973 0.099598
5127.27 5127.27 1.630000 3.450704 61.0944 1.938109 0.105880
5134.79 5134.79 1.660000 3.442277 62.7275 2.006755 0.110170
5142.49 5142.49 1.700000 3.432653 64.7967 2.093000 0.113426
5150.35 5150.35 1.740000 3.417502 66.8888 2.193563 0.118062
5158.39 5158.39 1.780000 3.397033 68.9955 2.309433 0.127869
5166.6 5166.6 1.810000 3.374252 70.7582 2.423016 0.137680
5174.98 5174.98 1.850000 3.347054 73.063 2.570897 0.150824
5183.53 5183.53 1.890000 3.326860 75.2845 2.703126 0.161872
5192.25 5192.25 1.930000 3.312177 77.5002 2.823850 0.170387
5201.14 5201.14 1.960000 3.301038 79.4676 2.927976 0.177336
5210.21 5210.21 2.000000 3.281733 81.7498 3.070775 0.185905
5219.45 5219.45 2.040000 3.259534 84.0975 3.229873 0.198140
5228.85 5228.85 2.080000 3.236886 86.4489 3.396215 0.211470
5238.43 5238.43 2.110000 3.214201 88.6869 3.564092 0.226742
5248.18 5248.18 2.150000 3.190194 90.4903 3.724926 0.242789
5258.11 5258.11 2.190000 3.172135 93.7094 3.927746 0.260804
5268.2 5268.2 2.230000 3.156255 96.4281 4.106382 0.276123
5278.47 5278.47 2.260000 3.138163 97.9404 4.246940 0.288637
5288.9 5288.9 2.300000 3.118592 101.539 4.489988 0.307388
5299.51 5299.51 2.340000 3.095982 104.297 4.717444 0.328710
5310.29 5310.29 2.380000 3.074391 107.192 4.954158 0.350460
5321.24 5321.24 2.410000 3.053202 109.506 5.169514 0.371618
5332.36 5332.36 2.450000 3.032321 111.921 5.395012 0.395154
5343.66 5343.66 2.490000 3.011211 114.688 5.646338 0.422010
5355.12 5355.12 2.530000 2.988939 116.564 5.867941 0.445884
5366.76 5366.76 2.560000 2.966382 119.304 6.142850 0.472568
5378.57 5378.57 2.600000 2.945416 121.31 6.378482 0.496891
5390.55 5390.55 2.640000 2.923191 123.462 6.637523 0.526071
5402.7 5402.7 2.680000 2.901803 125.143 6.873359 0.553182
5415.02 5415.02 2.710000 2.878506 126.17 7.093095 0.581991
5427.52 5427.52 2.750000 2.855910 127.513 7.332472 0.612289
5440.18 5440.18 2.790000 2.833275 129.225 7.600998 0.646414
5453.02 5453.02 2.830000 2.811334 131.128 7.884025 0.681778
5466.03 5466.03 2.860000 2.788742 132.965 8.177170 0.718268
5479.21 5479.21 2.900000 2.767452 135.868 8.535482 0.761072
5492.56 5492.56 2.940000 2.745323 138.47 8.893575 0.806521
5506.08 5506.08 2.980000 2.721451 141.297 9.294375 0.856865
5519.78 5519.78 3.010000 2.697865 144.119 9.706238 0.909504
5533.64 5533.64 3.050000 2.674183 147.656 10.1828 0.970843
5547.68 5547.68 3.090000 2.651247 150.595 10.6265 1.030951
5561.89 5561.89 3.130000 2.629203 153.587 11.0792 1.092649
5576.27 5576.27 3.160000 2.607091 156.131 11.5145 1.154959
5590.82 5590.82 3.200000 2.584579 159.253 12.0122 1.224749
5605.54 5605.54 3.240000 2.561492 162.279 12.5263 1.298622
5620.44 5620.44 3.280000 2.538053 165.232 13.0567 1.376111
5635.5 5635.5 3.310000 2.514844 166.821 13.4918 1.448040
5650.74 5650.74 3.350000 2.492121 169.508 14.0242 1.531715
5666.15 5666.15 3.390000 2.468503 172.742 14.6333 1.625641
5681.73 5681.73 3.430000 2.445923 176.867 15.3249 1.731899
5697.48 5697.48 3.460000 2.422951 179.85 15.9455 1.833306
5708.08 5708.08 3.490000 2.407530 182.062 16.3924 1.906618