Folder: webxdiviewer/xdidata/Data/Ti (part 2)

File: Ti-K-Eu2Ti2O7.xdi
# XDI/1.0 BlueSky/1.5.0
# Beamline.name: 6BM
# Beamline.xray_source: NSLS-II three-pole wiggler
# Beamline.collimation: paraboloid mirror, 5 nm Rh on 30 nm Pt
# Beamline.focusing: not in use
# Beamline.harmonic_rejection: flat mirror, Si stripe, pitch = 7.0 mrad relative to beam
# Detector.i0: 10 cm N2
# Detector.i1: 25 cm N2
# Detector.i2: 25 cm N2
# Element.symbol: Ti
# Element.edge: K
# Facility.name: NSLS-II
# Facility.energy: 3.0
# Facility.current: 219.4
# Facility.mode: top-off
# Facility.gup: 301027
# Facility.saf: 304156
# Mono.name: Si(111)
# Mono.d_spacing: 3.13532
# Mono.encoder_resolution: 0.0000050 deg/ct
# Mono.angle_offset: 16.0577 deg
# Mono.scan_mode: pseudo channel cut
# Mono.scan_type: step
# Mono.direction: forward in energy
# Sample.name: Eu2Ti2O7 pyrochlore
# Sample.prep: powder on tape
# Sample.x_position: -97.500 mm
# Sample.y_position: 115.250 mm
# Sample.wheel_position: 0.000 mm
# Scan.experimenters: Bruce Ravel
# Scan.edge_energy: 4966.0
# Scan.start_time: 2019-06-16T20:39:25
# Scan.end_time: 2019-06-16T23:06:51
# Scan.transient_id: 10639
# Scan.uid: 13bb7c02-38da-4619-ae76-ad642b5872ee
# Scan.plot_hint: ln(I0/It)  --  ln($5/$6)
# Scan.sequence: merge of 9 scans
# Column.1: energy eV
# Column.2: requested_energy eV
# Column.3: measurement_time seconds
# Column.4: mutrans
# Column.5: i0
# Column.6: itrans
# Column.7: irefer
# /////
#  from Fatih Dogan, 1993
# -----
# energy   requested_energy   measurement_time   mutrans   i0   itrans   irefer
4765.99 4766 0.500000 3.298278 8.529566 0.315141 0.020981
4796.01 4796 0.500000 3.225389 9.168524 0.364360 0.025641
4826.01 4826 0.500000 3.153849 9.820939 0.419231 0.031060
4856 4856 0.500000 3.084695 10.4918 0.479926 0.037489
4886 4886 0.500000 3.016901 11.1691 0.546751 0.044792
4916 4916 0.500000 2.951204 11.8594 0.619970 0.053339
4938 4938 0.500000 2.903761 12.3707 0.678121 0.060182
4944 4944 0.500000 2.891020 12.5171 0.694940 0.062266
4950 4950 0.500000 2.878371 12.6318 0.710235 0.064090
4956 4956 0.500000 2.865879 12.7524 0.726029 0.065930
4956.75 4956.75 0.500000 2.864401 12.7763 0.728471 0.066236
4957.49 4957.5 0.500000 2.862789 12.7976 0.730858 0.066411
4958.24 4958.25 0.500000 2.861228 12.8147 0.732983 0.066610
4959 4959 0.500000 2.859774 12.842 0.735614 0.066792
4959.74 4959.75 0.500000 2.858315 12.8565 0.737517 0.066943
4960.49 4960.5 0.500000 2.857041 12.8715 0.739319 0.067080
4961.25 4961.25 0.500000 2.855479 12.8858 0.741301 0.067026
4962 4962 0.500000 2.854173 12.9025 0.743230 0.067026
4962.75 4962.75 0.500000 2.852593 12.9161 0.745188 0.066625
4963.5 4963.5 0.500000 2.851298 12.9309 0.747010 0.065608
4964.24 4964.25 0.500000 2.849996 12.9431 0.748683 0.061213
4965 4965 0.500000 2.848796 12.9695 0.751115 0.049407
4965.75 4965.75 0.500000 2.848031 12.9825 0.752442 0.046112
4966.5 4966.5 0.500000 2.848912 13.0094 0.753332 0.050953
4967.25 4967.25 0.500000 2.853798 13.0177 0.750147 0.052522
4968 4968 0.500000 2.853918 13.0343 0.751011 0.050938
4968.75 4968.75 0.500000 2.859870 13.0454 0.747206 0.047975
4969.5 4969.5 0.500000 2.865506 13.0505 0.743283 0.046041
4970.25 4970.25 0.500000 2.862337 13.0648 0.746458 0.045615
4971 4971 0.500000 2.855612 13.0925 0.753105 0.045198
4971.75 4971.75 0.500000 2.851911 13.1231 0.757648 0.043591
4972.5 4972.5 0.500000 2.856784 13.1377 0.754803 0.040723
4973.25 4973.25 0.500000 2.860974 13.1481 0.752251 0.038067
4974 4974 0.500000 2.863565 13.1555 0.750714 0.035809
4974.75 4974.75 0.500000 2.863657 13.1759 0.751814 0.033661
4975.5 4975.5 0.500000 2.861863 13.1803 0.753417 0.031974
4976.25 4976.25 0.500000 2.861745 13.1806 0.753520 0.030251
4977 4977 0.500000 2.866447 13.1859 0.750294 0.028537
4977.75 4977.75 0.500000 2.877327 13.1935 0.742585 0.027353
4978.5 4978.5 0.500000 2.886853 13.2004 0.735946 0.026346
4979.25 4979.25 0.500000 2.896106 13.2056 0.729433 0.025771
4980 4980 0.500000 2.909486 13.2158 0.720305 0.025023
4980.75 4980.75 0.500000 2.931177 13.2134 0.704718 0.024285
4981.5 4981.5 0.500000 2.963520 13.2258 0.682947 0.023303
4982.25 4982.25 0.500000 3.006431 13.2351 0.654708 0.022117
4983 4983 0.500000 3.050781 13.2437 0.626703 0.020921
4983.75 4983.75 0.500000 3.082797 13.2592 0.607725 0.020198
4984.5 4984.5 0.500000 3.103653 13.2592 0.595137 0.019910
4985.25 4985.25 0.500000 3.102480 13.2778 0.596670 0.020295
4986 4986 0.500000 3.082910 13.2825 0.608694 0.021104
4986.75 4986.75 0.500000 3.064105 13.292 0.620683 0.021875
4987.5 4987.5 0.500000 3.051041 13.2906 0.628774 0.022342
4988.25 4988.25 0.500000 3.041751 13.3009 0.635136 0.022659
4989 4989 0.500000 3.036875 13.3307 0.639669 0.022868
4989.75 4989.75 0.500000 3.039151 13.3645 0.639829 0.022914
4990.5 4990.5 0.500000 3.049556 13.3978 0.634779 0.022751
4991.25 4991.25 0.500000 3.059010 13.4295 0.630314 0.022665
4992 4992 0.500000 3.066621 13.4677 0.627301 0.022588
4992.75 4992.75 0.500000 3.069013 13.4882 0.626756 0.022620
4993.5 4993.5 0.500000 3.066878 13.5052 0.628894 0.022800
4994.25 4994.25 0.500000 3.063179 13.5168 0.631758 0.022799
4995 4995 0.500000 3.061528 13.5428 0.634019 0.022685
4995.75 4995.75 0.500000 3.060792 13.5526 0.634943 0.022257
4998.19 4998.18 0.730000 3.050410 19.808 0.937731 0.031047
5001.59 5001.58 0.760000 3.026448 20.7421 1.005731 0.032917
5005.17 5005.16 0.800000 3.028573 22.0029 1.064601 0.035742
5008.92 5008.91 0.840000 2.983784 23.2849 1.178232 0.042962
5012.83 5012.83 0.880000 2.942922 24.5767 1.295467 0.049017
5016.93 5016.93 0.910000 2.935047 25.5713 1.358556 0.052872
5021.19 5021.19 0.950000 2.923385 26.8774 1.444690 0.057964
5025.63 5025.63 0.990000 2.909454 28.1985 1.536962 0.061700
5030.24 5030.24 1.030000 2.908503 29.534 1.611295 0.063398
5035.02 5035.01 1.060000 2.900706 30.5946 1.682222 0.062014
5039.97 5039.97 1.100000 2.896304 32.0045 1.767509 0.063593
5045.09 5045.09 1.140000 2.893007 33.4304 1.852357 0.068762
5050.38 5050.38 1.180000 2.891190 34.8587 1.935027 0.076998
5055.83 5055.84 1.210000 2.879129 36.0861 2.027446 0.085414
5061.47 5061.48 1.250000 2.871885 37.588 2.127176 0.090556
5067.28 5067.29 1.290000 2.858581 39.1562 2.245608 0.098141
5073.26 5073.27 1.330000 2.839688 40.7267 2.380214 0.105450
5079.41 5079.42 1.360000 2.823888 41.9925 2.493287 0.107628
5085.73 5085.74 1.400000 2.805712 43.5977 2.636078 0.108221
5092.22 5092.23 1.440000 2.786529 45.2159 2.786866 0.112630
5098.9 5098.9 1.480000 2.773703 46.8443 2.924487 0.127420
5105.74 5105.74 1.510000 2.759143 48.1895 3.052594 0.142492
5112.74 5112.74 1.550000 2.744991 49.8912 3.205466 0.151168
5119.92 5119.92 1.590000 2.732349 51.614 3.358319 0.159905
5127.27 5127.27 1.630000 2.722474 53.319 3.503699 0.169711
5134.79 5134.79 1.660000 2.708274 54.7587 3.649757 0.178300
5142.49 5142.49 1.700000 2.695006 56.4996 3.816069 0.184374
5150.35 5150.35 1.740000 2.678696 58.2289 3.997571 0.191597
5158.39 5158.39 1.780000 2.660388 59.9974 4.195095 0.207642
5166.6 5166.6 1.810000 2.644029 61.422 4.365539 0.222933
5174.98 5174.98 1.850000 2.628706 63.1 4.554048 0.240916
5183.53 5183.53 1.890000 2.611116 64.8543 4.763713 0.258029
5192.25 5192.25 1.930000 2.594057 66.5758 4.974313 0.272408
5201.14 5201.14 1.960000 2.576129 67.9551 5.169207 0.284863
5210.21 5210.21 2.000000 2.558402 69.7171 5.398090 0.298298
5219.45 5219.45 2.040000 2.541534 71.4618 5.627294 0.315419
5228.85 5228.85 2.080000 2.525998 73.2852 5.861229 0.334617
5238.43 5238.43 2.110000 2.509656 74.7731 6.078798 0.354665
5248.18 5248.18 2.150000 2.492500 76.1224 6.295559 0.376956
5258.11 5258.11 2.190000 2.474528 78.5755 6.616263 0.405506
5268.2 5268.2 2.230000 2.455906 80.6718 6.920456 0.430652
5278.47 5278.47 2.260000 2.437837 81.5646 7.124614 0.447485
5288.9 5288.9 2.300000 2.420183 84.426 7.505940 0.477091
5299.51 5299.51 2.340000 2.402239 86.639 7.842123 0.507916
5310.29 5310.29 2.380000 2.383095 88.472 8.162822 0.537809
5321.24 5321.24 2.410000 2.364270 90.0388 8.465249 0.567973
5332.36 5332.36 2.450000 2.344813 92.0121 8.820755 0.603744
5343.66 5343.66 2.490000 2.325928 94.1655 9.199270 0.643193
5355.12 5355.12 2.530000 2.307309 96.0122 9.555980 0.680779
5366.76 5366.76 2.560000 2.289250 98.5791 9.990247 0.721093
5378.57 5378.57 2.600000 2.270441 101.135 10.4438 0.765071
5390.55 5390.55 2.640000 2.250790 103.783 10.93 0.815263
5402.7 5402.7 2.680000 2.230857 106.585 11.4511 0.869280
5415.02 5415.02 2.710000 2.211275 108.977 11.9396 0.923381
5427.52 5427.52 2.750000 2.191906 111.531 12.4583 0.981918
5440.18 5440.18 2.790000 2.172333 114.285 13.0184 1.046030
5453.02 5453.02 2.830000 2.152529 116.892 13.5817 1.109868
5466.03 5466.03 2.860000 2.132257 118.819 14.0882 1.171165
5479.21 5479.21 2.900000 2.111751 120.883 14.63 1.236698
5492.56 5492.56 2.940000 2.091357 122.584 15.1416 1.302607
5506.08 5506.08 2.980000 2.071295 123.919 15.6166 1.367255
5519.78 5519.78 3.010000 2.051408 124.443 15.9976 1.425834
5533.64 5533.64 3.050000 2.031628 125.168 16.4122 1.489886
5547.68 5547.68 3.090000 2.011806 125.623 16.8017 1.552773
5561.89 5561.89 3.130000 1.991954 126.412 17.2462 1.622291
5576.27 5576.27 3.160000 1.972006 126.583 17.6175 1.686632
5590.82 5590.82 3.200000 1.952199 127.462 18.0947 1.762567
5605.54 5605.54 3.240000 1.932554 128.635 18.6235 1.846445
5620.44 5620.44 3.280000 1.912808 130.166 19.2209 1.939872
5635.5 5635.5 3.310000 1.893252 130.539 19.6566 2.020603
5650.74 5650.74 3.350000 1.873117 132.527 20.362 2.131388
5666.15 5666.15 3.390000 1.852277 135.088 21.1925 2.258505
5681.73 5681.73 3.430000 1.832174 138.094 22.1041 2.397545
5697.48 5697.48 3.460000 1.812052 140.327 22.9181 2.530933
5713.4 5713.4 3.500000 1.791828 143.117 23.8511 2.681773
5729.5 5729.5 3.540000 1.771553 145.534 24.7507 2.832273
5745.77 5745.77 3.580000 1.751157 147.983 25.6858 2.992381
5762.2 5762.2 3.610000 1.730757 149.947 26.5632 3.151183
5778.81 5778.81 3.650000 1.710369 152.055 27.4914 3.320246
5795.59 5795.59 3.690000 1.690013 154.167 28.4463 3.497414
5812.54 5812.54 3.730000 1.669766 156.193 29.4097 3.680735
5818.23 5818.23 3.740000 1.662990 156.615 29.6897 3.737942

File: Ti-K-Li2TiO5.xdi
# XDI/1.0 BlueSky/1.5.0
# Beamline.name: 6BM
# Beamline.xray_source: NSLS-II three-pole wiggler
# Beamline.collimation: paraboloid mirror, 5 nm Rh on 30 nm Pt
# Beamline.focusing: not in use
# Beamline.harmonic_rejection: flat mirror, Si stripe, pitch = 7.0 mrad relative to beam
# Detector.i0: 10 cm N2
# Detector.i1: 25 cm N2
# Detector.i2: 25 cm N2
# Element.symbol: Ti
# Element.edge: K
# Facility.name: NSLS-II
# Facility.energy: 3.0
# Facility.current: 220.5
# Facility.mode: top-off
# Facility.gup: 301027
# Facility.saf: 304156
# Mono.name: Si(111)
# Mono.d_spacing: 3.13532
# Mono.encoder_resolution: 0.0000050 deg/ct
# Mono.angle_offset: 16.0577 deg
# Mono.scan_mode: pseudo channel cut
# Mono.scan_type: step
# Mono.direction: forward in energy
# Sample.name: Li2TiO5
# Sample.prep: Powder in polyethylene glycol pellet
# Sample.x_position: -97.500 mm
# Sample.y_position: 115.250 mm
# Sample.wheel_position: 30.000 mm
# Scan.experimenters: Bruce Ravel
# Scan.edge_energy: 4966.0
# Scan.start_time: 2019-06-16T15:41:20
# Scan.end_time: 2019-06-16T18:11:15
# Scan.transient_id: 10621
# Scan.uid: 84886ac2-6dbb-43d7-9855-9aeb89350303
# Scan.plot_hint: ln(I0/It)  --  ln($5/$6)
# Scan.sequence: merge of 9 scans
# Column.1: energy eV
# Column.2: requested_energy eV
# Column.3: measurement_time seconds
# Column.4: mutrans
# Column.5: i0
# Column.6: itrans
# Column.7: irefer
# /////
#  from Martin Stennet
# -----
# energy   requested_energy   measurement_time   mutrans   i0   itrans   irefer
4765.99 4766 0.500000 5.773535 8.377634 0.026045 0.001047
4796.01 4796 0.500000 5.642147 9.007278 0.031933 0.001632
4826.01 4826 0.500000 5.525207 9.655348 0.038477 0.002376
4856 4856 0.500000 5.412351 10.3056 0.045974 0.003063
4886.01 4886 0.500000 5.302091 10.9913 0.054750 0.003889
4916 4916 0.500000 5.195558 11.6892 0.064773 0.005014
4938 4938 0.500000 5.116961 12.2113 0.073197 0.006033
4944 4944 0.500000 5.095751 12.348 0.075603 0.006274
4950 4950 0.500000 5.078085 12.468 0.077699 0.006576
4956 4956 0.500000 5.058098 12.5882 0.080031 0.006829
4956.75 4956.75 0.500000 5.056573 12.6015 0.080239 0.006663
4957.49 4957.5 0.500000 5.054297 12.62 0.080539 0.006919
4958.25 4958.25 0.500000 5.052186 12.633 0.080792 0.006807
4959 4959 0.500000 5.049366 12.6481 0.081117 0.006945
4959.74 4959.75 0.500000 5.046536 12.6595 0.081421 0.006937
4960.49 4960.5 0.500000 5.046621 12.675 0.081514 0.006909
4961.25 4961.25 0.500000 5.043509 12.6886 0.081855 0.006978
4961.99 4962 0.500000 5.042488 12.7015 0.082023 0.006980
4962.75 4962.75 0.500000 5.041275 12.7161 0.082216 0.006959
4963.5 4963.5 0.500000 5.039412 12.7312 0.082467 0.006689
4964.25 4964.25 0.500000 5.039902 12.745 0.082516 0.006363
4965 4965 0.500000 5.040677 12.7639 0.082574 0.004996
4965.75 4965.75 0.500000 5.043031 12.8002 0.082615 0.004581
4966.5 4966.5 0.500000 5.056882 12.8121 0.081556 0.005123
4967.25 4967.25 0.500000 5.095107 12.8333 0.078626 0.005018
4968 4968 0.500000 5.071954 12.846 0.080545 0.005081
4968.75 4968.75 0.500000 5.106283 12.8527 0.077880 0.004511
4969.5 4969.5 0.500000 5.193342 12.8683 0.071468 0.003815
4970.25 4970.25 0.500000 5.182913 12.8824 0.072293 0.003901
4971 4971 0.500000 5.129932 12.9085 0.076381 0.004147
4971.75 4971.75 0.500000 5.094804 12.9272 0.079224 0.004109
4972.5 4972.5 0.500000 5.114141 12.9364 0.077758 0.003750
4973.25 4973.25 0.500000 5.133067 12.9468 0.076366 0.003420
4974 4974 0.500000 5.139394 12.9579 0.075950 0.003151
4974.75 4974.75 0.500000 5.181806 12.9769 0.072898 0.002774
4975.5 4975.5 0.500000 5.301045 12.9786 0.064722 0.002268
4976.25 4976.25 0.500000 5.435637 12.9818 0.056580 0.001938
4977 4977 0.500000 5.445614 12.9817 0.056019 0.001733
4977.75 4977.75 0.500000 5.464820 12.9911 0.054992 0.001626
4978.5 4978.5 0.500000 5.503878 13.0005 0.052922 0.001461
4979.25 4979.25 0.500000 5.541529 13.0189 0.051042 0.001394
4980 4980 0.500000 5.570650 13.0276 0.049611 0.001283
4980.75 4980.75 0.500000 5.600689 13.0237 0.048129 0.001275
4981.5 4981.5 0.500000 5.653699 13.0248 0.045648 0.001142
4982.25 4982.25 0.500000 5.749678 13.0354 0.041493 0.000991
4983 4983 0.500000 5.879221 13.0433 0.036484 0.000730
4983.75 4983.75 0.500000 6.000767 13.0463 0.032310 0.000558
4984.5 4984.5 0.500000 6.106111 13.0628 0.029128 0.000459
4985.25 4985.25 0.500000 6.184660 13.0726 0.026939 0.000394
4986 4986 0.500000 6.243696 13.076 0.025404 0.000446
4986.75 4986.75 0.500000 6.291153 13.0766 0.024226 0.000572
4987.5 4987.5 0.500000 6.315334 13.0767 0.023649 0.000421
4988.25 4988.25 0.500000 6.280075 13.088 0.024517 0.000400
4989 4989 0.500000 6.205741 13.116 0.026462 0.000474
4989.75 4989.75 0.500000 6.136108 13.1517 0.028456 0.000643
4990.5 4990.5 0.500000 6.071935 13.1866 0.030420 0.000669
4991.25 4991.25 0.500000 6.019548 13.2179 0.032132 0.000747
4992 4992 0.500000 5.984834 13.2471 0.033336 0.000744
4992.75 4992.75 0.500000 5.971138 13.2824 0.033889 0.000820
4993.5 4993.5 0.500000 5.960585 13.3102 0.034320 0.000724
4994.25 4994.25 0.500000 5.958324 13.3381 0.034469 0.000721
4995 4995 0.500000 5.962687 13.362 0.034381 0.000902
4995.75 4995.75 0.500000 5.976977 13.3751 0.033928 0.000815
4998.19 4998.18 0.730000 6.088207 19.5709 0.044413 0.000803
5001.59 5001.58 0.760000 6.142823 20.4856 0.044026 0.000791
5005.17 5005.16 0.800000 6.014988 21.7337 0.053078 0.001044
5008.92 5008.91 0.840000 5.895316 23.0196 0.063364 0.001516
5012.83 5012.83 0.880000 5.813780 24.2807 0.072504 0.002148
5016.93 5016.93 0.910000 5.810896 25.2679 0.075671 0.002071
5021.19 5021.19 0.950000 5.777598 26.5657 0.082252 0.002449
5025.63 5025.63 0.990000 5.730919 27.8829 0.090456 0.002867
5030.24 5030.24 1.030000 5.738888 29.2197 0.094041 0.002711
5035.01 5035.01 1.060000 5.751891 30.319 0.096317 0.002765
5039.98 5039.97 1.100000 5.789512 31.7368 0.097099 0.002642
5045.1 5045.09 1.140000 5.769894 33.1437 0.103414 0.002855
5050.39 5050.38 1.180000 5.753609 34.6165 0.109782 0.003433
5055.84 5055.84 1.210000 5.754835 35.7948 0.113378 0.003727
5061.48 5061.48 1.250000 5.730831 37.3045 0.121034 0.004222
5067.28 5067.29 1.290000 5.703861 38.8536 0.129502 0.004749
5073.26 5073.27 1.330000 5.676494 40.4339 0.138508 0.005187
5079.41 5079.42 1.360000 5.639767 41.774 0.148453 0.005295
5085.73 5085.74 1.400000 5.606893 43.4158 0.159441 0.005473
5092.22 5092.23 1.440000 5.572158 45.0802 0.171407 0.005828
5098.9 5098.9 1.480000 5.550328 46.7264 0.181587 0.006869
5105.73 5105.74 1.510000 5.521725 48.1129 0.192395 0.007762
5112.74 5112.74 1.550000 5.491197 49.835 0.205466 0.008630
5119.92 5119.92 1.590000 5.475479 51.5998 0.216112 0.009234
5127.27 5127.27 1.630000 5.460060 53.3418 0.226880 0.009880
5134.79 5134.79 1.660000 5.439948 54.7664 0.237669 0.010450
5142.49 5142.49 1.700000 5.422808 56.5811 0.249791 0.011033
5150.35 5150.35 1.740000 5.397896 58.3297 0.264011 0.011736
5158.39 5158.39 1.780000 5.375227 60.1303 0.278396 0.012849
5166.6 5166.6 1.810000 5.338218 61.5703 0.295807 0.014060
5174.98 5174.98 1.850000 5.298956 63.2666 0.316129 0.015604
5183.53 5183.53 1.890000 5.267004 64.9545 0.335099 0.017110
5192.25 5192.25 1.930000 5.238620 66.6692 0.353853 0.018466
5201.14 5201.14 1.960000 5.212807 67.9629 0.370150 0.019543
5210.21 5210.21 2.000000 5.184456 69.6758 0.390394 0.020804
5219.45 5219.45 2.040000 5.158599 71.5502 0.411398 0.022174
5228.85 5228.85 2.080000 5.133769 73.2022 0.431470 0.023773
5238.43 5238.43 2.110000 5.104410 74.576 0.452670 0.025686
5248.18 5248.18 2.150000 5.069447 75.8408 0.476727 0.027549
5258.11 5258.11 2.190000 5.037704 78.1 0.506760 0.030412
5268.2 5268.2 2.230000 5.008588 79.9694 0.534222 0.032612
5278.47 5278.47 2.260000 4.980741 80.7364 0.554576 0.034345
5288.9 5288.9 2.300000 4.950372 83.6623 0.592395 0.037089
5299.51 5299.51 2.340000 4.918562 85.6344 0.625955 0.039872
5310.29 5310.29 2.380000 4.885882 87.4313 0.660319 0.042815
5321.24 5321.24 2.410000 4.852295 88.9807 0.694977 0.045866
5332.36 5332.36 2.450000 4.817675 90.7559 0.733815 0.049616
5343.66 5343.66 2.490000 4.783787 92.8687 0.776777 0.053724
5355.12 5355.12 2.530000 4.752322 94.6748 0.817192 0.057611
5366.76 5366.76 2.560000 4.722532 97.1831 0.864210 0.061911
5378.57 5378.57 2.600000 4.692320 99.5369 0.912288 0.066310
5390.55 5390.55 2.640000 4.660439 102.079 0.965909 0.071455
5402.7 5402.7 2.680000 4.627128 104.504 1.022337 0.076993
5415.02 5415.02 2.710000 4.594394 106.71 1.078654 0.082849
5427.52 5427.52 2.750000 4.560223 109.113 1.141287 0.089196
5440.18 5440.18 2.790000 4.526319 111.714 1.208789 0.096663
5453.02 5453.02 2.830000 4.494009 114.167 1.275896 0.103578
5466.03 5466.03 2.860000 4.460581 116.16 1.342301 0.110884
5479.21 5479.21 2.900000 4.428189 118.337 1.412477 0.118693
5492.56 5492.56 2.940000 4.395659 120.179 1.481889 0.126428
5506.08 5506.08 2.980000 4.361219 121.707 1.553334 0.134810
5519.78 5519.78 3.010000 4.327141 122.473 1.617269 0.143064
5533.64 5533.64 3.050000 4.293187 123.133 1.682149 0.151087
5547.68 5547.68 3.090000 4.259210 123.452 1.744803 0.159763
5561.89 5561.89 3.130000 4.224815 123.669 1.809032 0.168516
5576.27 5576.27 3.160000 4.190765 123.585 1.870417 0.177162
5590.82 5590.82 3.200000 4.156328 123.935 1.941432 0.187652
5605.54 5605.54 3.240000 4.122081 124.457 2.017529 0.198039
5620.44 5620.44 3.280000 4.087366 125.036 2.098503 0.209794
5635.5 5635.5 3.310000 4.052120 124.899 2.171434 0.221145
5650.74 5650.74 3.350000 4.018222 126.267 2.270898 0.235577
5666.15 5666.15 3.390000 3.983583 128.673 2.395751 0.252712
5681.73 5681.73 3.430000 3.949256 131.255 2.529163 0.271846
5697.48 5697.48 3.460000 3.914894 133.297 2.658293 0.290806
5713.4 5713.4 3.500000 3.880250 135.87 2.805158 0.312538
5729.5 5729.5 3.540000 3.845499 138.441 2.959293 0.335832
5745.77 5745.77 3.580000 3.810288 140.835 3.118376 0.360580
5762.2 5762.2 3.610000 3.775369 142.841 3.275180 0.385661
5778.81 5778.81 3.650000 3.740301 144.932 3.441726 0.412797
5795.59 5795.59 3.690000 3.704857 146.972 3.616092 0.441775
5812.54 5812.54 3.730000 3.670084 149.219 3.801259 0.472517
5818.23 5818.23 3.740000 3.658559 149.702 3.857788 0.482552