Folder: webxdiviewer/xdidata/Data/Ti

Note: xdidata/README.md
# bmm-standards
A pretty webpage for BMM's collection of common XAFS materials

[BMM's common materials collection](./BMM-standards.html)

Plotting of the data will happen soon.

Periodic table adapted from [some guy named Daniel](https://codepen.io/gooseofmusic/pen/PjKdNQ)

[This](https://www.coderstool.com/scss-to-css) is a helpful tool for
dealing with Sassy CSS.

File: Ti-K-Anatase.xdi
# XDI/1.0 BlueSky/1.5.0
# Beamline.name: 6BM
# Beamline.xray_source: NSLS-II three-pole wiggler
# Beamline.collimation: paraboloid mirror, 5 nm Rh on 30 nm Pt
# Beamline.focusing: not in use
# Beamline.harmonic_rejection: flat mirror, Si stripe, pitch = 7.0 mrad relative to beam
# Detector.i0: 10 cm N2
# Detector.i1: 25 cm N2
# Detector.i2: 25 cm N2
# Element.symbol: Ti
# Element.edge: K
# Facility.name: NSLS-II
# Facility.energy: 3.0
# Facility.current: 219.5
# Facility.mode: top-off
# Facility.gup: 301027
# Facility.saf: 304156
# Mono.name: Si(111)
# Mono.d_spacing: 3.13526
# Mono.encoder_resolution: 0.0000050 deg/ct
# Mono.angle_offset: 16.0571 deg
# Mono.scan_mode: pseudo channel cut
# Mono.scan_type: step
# Mono.direction: forward in energy
# Sample.name: TiO2 anatase
# Sample.prep: Powder in polyethylene glycol pellet
# Sample.x_position: -97.532 mm
# Sample.y_position: 117.543 mm
# Sample.wheel_position: -420.000 mm
# Scan.experimenters: Bruce Ravel, Martin Stennett
# Scan.edge_energy: 4966.0
# Scan.start_time: 2019-05-29T19:00:19
# Scan.end_time: 2019-05-29T19:43:36
# Scan.transient_id: 9752
# Scan.uid: f32ba38a-0473-4f12-8442-7691134ab519
# Scan.plot_hint: ln(I0/It)  --  ln($5/$6)
# Scan.sequence: merge of 3 scans
# Column.1: energy eV
# Column.2: requested_energy eV
# Column.3: measurement_time seconds
# Column.4: mutrans
# Column.5: i0
# Column.6: itrans
# Column.7: irefer
# /////
#  sample disk prepared by Martin
# -----
# energy   requested_energy   measurement_time   mutrans   i0   itrans   irefer
4765.99 4766 0.500000 3.603884 10.8222 0.294585 0.024139
4796.01 4796 0.500000 3.530579 11.5618 0.338622 0.028565
4826 4826 0.500000 3.452964 12.3285 0.390215 0.034006
4856 4856 0.500000 3.376981 13.0854 0.446867 0.040350
4886 4886 0.500000 3.302953 13.8147 0.508025 0.047602
4916 4916 0.500000 3.230773 14.5445 0.574896 0.055826
4938 4938 0.500000 3.179523 15.0827 0.627522 0.062812
4943.99 4944 0.500000 3.166854 15.2156 0.641122 0.064276
4950 4950 0.500000 3.153598 15.3305 0.654585 0.066287
4956.01 4956 0.500000 3.141734 15.4755 0.668663 0.067750
4956.74 4956.75 0.500000 3.139998 15.4862 0.670283 0.067841
4957.49 4957.5 0.500000 3.139257 15.4988 0.671329 0.068235
4958.24 4958.25 0.500000 3.137170 15.5113 0.673273 0.068473
4959 4959 0.500000 3.136241 15.5247 0.674478 0.068400
4959.74 4959.75 0.500000 3.134889 15.5375 0.675951 0.068787
4960.5 4960.5 0.500000 3.134248 15.5495 0.676905 0.068741
4961.24 4961.25 0.500000 3.132571 15.5627 0.678615 0.068929
4962 4962 0.500000 3.131957 15.5784 0.679720 0.068495
4962.75 4962.75 0.500000 3.131546 15.5947 0.680711 0.068027
4963.5 4963.5 0.500000 3.131330 15.6081 0.681443 0.066870
4964.25 4964.25 0.500000 3.131275 15.6243 0.682189 0.063297
4965 4965 0.500000 3.133251 15.6353 0.681322 0.051593
4965.75 4965.75 0.500000 3.137641 15.6451 0.678756 0.046692
4966.5 4966.5 0.500000 3.156449 15.6555 0.666542 0.050223
4967.25 4967.25 0.500000 3.227354 15.6647 0.621410 0.049178
4968 4968 0.500000 3.206647 15.6781 0.634842 0.048633
4968.75 4968.75 0.500000 3.203782 15.69 0.637167 0.046358
4969.5 4969.5 0.500000 3.256305 15.6932 0.604677 0.042560
4970.25 4970.25 0.500000 3.305328 15.7025 0.576073 0.040017
4971 4971 0.500000 3.300701 15.7366 0.579988 0.039622
4971.75 4971.75 0.500000 3.265768 15.7541 0.601277 0.039599
4972.5 4972.5 0.500000 3.295446 15.7678 0.584231 0.036175
4973.25 4973.25 0.500000 3.301308 15.7749 0.581045 0.033858
4974 4974 0.500000 3.270359 15.7825 0.599613 0.032926
4974.76 4974.75 0.500000 3.250790 15.7895 0.611742 0.031876
4975.5 4975.5 0.500000 3.264448 15.7896 0.603427 0.029362
4976.25 4976.25 0.500000 3.309169 15.7982 0.577246 0.027091
4977 4977 0.500000 3.374821 15.8193 0.541561 0.024480
4977.75 4977.75 0.500000 3.451426 15.8252 0.501746 0.021952
4978.5 4978.5 0.500000 3.525690 15.8335 0.466022 0.020257
4979.25 4979.25 0.500000 3.559626 15.8351 0.450492 0.019211
4980 4980 0.500000 3.590074 15.825 0.436731 0.018565
4980.75 4980.75 0.500000 3.697469 15.8163 0.392189 0.016751
4981.5 4981.5 0.500000 3.876230 15.8139 0.327764 0.014285
4982.25 4982.25 0.500000 4.040592 15.8579 0.278900 0.012523
4983 4983 0.500000 4.219754 15.8634 0.233301 0.010562
4983.75 4983.75 0.500000 4.432984 15.8589 0.188332 0.008826
4984.5 4984.5 0.500000 4.622030 15.8569 0.155935 0.007826
4985.25 4985.25 0.500000 4.754135 15.8932 0.136949 0.007188
4986.01 4986 0.500000 4.766883 15.8945 0.135237 0.007210
4986.75 4986.75 0.500000 4.681404 15.8881 0.147238 0.007790
4987.5 4987.5 0.500000 4.609010 15.8835 0.158228 0.008212
4988.25 4988.25 0.500000 4.570204 15.8908 0.164568 0.008350
4989 4989 0.500000 4.544144 15.923 0.169243 0.008690
4989.75 4989.75 0.500000 4.524195 15.9573 0.173026 0.009052
4990.5 4990.5 0.500000 4.500477 15.9957 0.177614 0.008675
4991.25 4991.25 0.500000 4.474541 16.0312 0.182683 0.009298
4992 4992 0.500000 4.473729 16.062 0.183184 0.009424
4992.75 4992.75 0.500000 4.502304 16.0831 0.178246 0.009054
4993.5 4993.5 0.500000 4.542604 16.0996 0.171384 0.008806
4994.25 4994.25 0.500000 4.554206 16.1141 0.169565 0.008851
4995 4995 0.500000 4.545347 16.124 0.171182 0.008654
4995.75 4995.75 0.500000 4.549217 16.1457 0.170746 0.008548
4998.19 4998.18 0.730000 4.616378 23.5814 0.233188 0.011472
5001.59 5001.58 0.760000 4.624504 24.6521 0.241803 0.011889
5005.17 5005.16 0.800000 4.475624 26.1296 0.297463 0.014512
5008.92 5008.91 0.840000 4.272783 27.6277 0.385226 0.018446
5012.84 5012.83 0.880000 4.113956 29.1184 0.475889 0.022940
5016.94 5016.93 0.910000 4.107115 30.2695 0.498099 0.024741
5021.19 5021.19 0.950000 4.074443 31.7821 0.540341 0.027351
5025.64 5025.63 0.990000 4.081853 33.3179 0.562274 0.028629
5030.25 5030.24 1.030000 4.099494 34.9228 0.579059 0.028731
5035.02 5035.01 1.060000 4.097489 36.1277 0.600242 0.028446
5039.98 5039.97 1.100000 4.106247 37.6932 0.620791 0.028687
5045.09 5045.09 1.140000 4.133739 39.2571 0.629013 0.029754
5050.38 5050.38 1.180000 4.136212 40.8384 0.652733 0.032862
5055.84 5055.84 1.210000 4.164020 42.2014 0.656018 0.034778
5061.48 5061.48 1.250000 4.183686 43.8568 0.668478 0.035729
5067.29 5067.29 1.290000 4.146883 45.64 0.721735 0.038900
5073.27 5073.27 1.330000 4.097370 47.338 0.786590 0.042626
5079.42 5079.42 1.360000 4.073126 48.7 0.829069 0.043873
5085.74 5085.74 1.400000 4.031735 50.4173 0.894578 0.045403
5092.23 5092.23 1.440000 3.963342 52.1727 0.991269 0.048617
5098.9 5098.9 1.480000 3.939122 53.9151 1.049473 0.054579
5105.74 5105.74 1.510000 3.924727 55.3054 1.092144 0.060810
5112.74 5112.74 1.550000 3.895294 57.0976 1.161214 0.064788
5119.92 5119.92 1.590000 3.883009 58.9322 1.213340 0.067977
5127.27 5127.27 1.630000 3.885712 60.8179 1.248783 0.071403
5134.79 5134.79 1.660000 3.902511 62.3843 1.259613 0.072638
5142.49 5142.49 1.700000 3.909608 64.3521 1.290162 0.073400
5150.35 5150.35 1.740000 3.870494 66.3411 1.383075 0.077740
5158.39 5158.39 1.780000 3.821294 68.543 1.501056 0.086202
5166.6 5166.6 1.810000 3.783592 70.2246 1.596973 0.093978
5174.98 5174.98 1.850000 3.759772 72.2838 1.683431 0.102546
5183.53 5183.53 1.890000 3.743027 74.5709 1.766020 0.109305
5192.25 5192.25 1.930000 3.728129 76.6671 1.842914 0.115016
5201.14 5201.14 1.960000 3.701852 78.5201 1.937697 0.120772
5210.21 5210.21 2.000000 3.669086 80.7009 2.057859 0.128604
5219.45 5219.45 2.040000 3.644097 82.8884 2.167111 0.137218
5228.85 5228.85 2.080000 3.618360 85.0602 2.281874 0.146383
5238.43 5238.43 2.110000 3.596348 86.9232 2.383761 0.155745
5248.18 5248.18 2.150000 3.579771 88.6335 2.471285 0.165292
5258.11 5258.11 2.190000 3.564226 91.6134 2.594396 0.176789
5268.2 5268.2 2.230000 3.544452 94.2362 2.721965 0.187744
5278.47 5278.47 2.260000 3.519767 95.289 2.821164 0.196428
5288.9 5288.9 2.300000 3.490359 99.1955 3.024459 0.211832
5299.51 5299.51 2.340000 3.459623 102.091 3.209952 0.228431
5310.29 5310.29 2.380000 3.430608 104.931 3.396367 0.245185
5321.24 5321.24 2.410000 3.403056 107.234 3.567874 0.261040
5332.36 5332.36 2.450000 3.377257 109.647 3.743494 0.279118
5343.66 5343.66 2.490000 3.353234 112.301 3.927314 0.298373
5355.12 5355.12 2.530000 3.330152 114.247 4.088652 0.316376
5366.76 5366.76 2.560000 3.307879 117.008 4.281773 0.334675
5378.57 5378.57 2.600000 3.284263 118.824 4.452144 0.352382
5390.55 5390.55 2.640000 3.253758 120.687 4.662023 0.374987
5402.7 5402.7 2.680000 3.224935 122.195 4.858313 0.397074
5415.02 5415.02 2.710000 3.198395 122.878 5.016876 0.416983
5427.52 5427.52 2.750000 3.175240 123.815 5.173528 0.438357
5440.18 5440.18 2.790000 3.148791 124.991 5.362668 0.462049
5453.02 5453.02 2.830000 3.121718 126.609 5.581144 0.488992
5466.02 5466.03 2.860000 3.094855 128.277 5.808621 0.516150
5479.21 5479.21 2.900000 3.065421 130.695 6.094880 0.549970
5492.56 5492.56 2.940000 3.036827 133.03 6.383732 0.585163
5506.08 5506.08 2.980000 3.009281 135.765 6.696949 0.623434
5519.78 5519.78 3.010000 2.984986 138.051 6.977150 0.660430
5533.64 5533.64 3.050000 2.962034 141.067 7.295129 0.701998
5547.68 5547.68 3.090000 2.936942 143.93 7.632265 0.747310
5561.89 5561.89 3.130000 2.909943 146.907 8.003330 0.796048
5576.27 5576.27 3.160000 2.883228 149.359 8.357213 0.845053
5590.82 5590.82 3.200000 2.855559 152.462 8.770163 0.900702
5605.54 5605.54 3.240000 2.828749 155.305 9.176443 0.958159
5620.44 5620.44 3.280000 2.802838 158.561 9.614819 1.020563
5635.5 5635.5 3.310000 2.777116 159.892 9.948119 1.074513
5650.74 5650.74 3.350000 2.750214 162.66 10.3963 1.141911
5666.15 5666.15 3.390000 2.723065 165.768 10.8865 1.215874
5681.73 5681.73 3.430000 2.696591 169.216 11.4111 1.296171
5697.48 5697.48 3.460000 2.669875 171.535 11.8806 1.372550
5708.08 5708.08 3.490000 2.652069 173.473 12.2307 1.428838

File: Ti-K-Bi2Ce2Ti3O12.xdi
# XDI/1.0 BlueSky/1.5.0
# Beamline.name: 6BM
# Beamline.xray_source: NSLS-II three-pole wiggler
# Beamline.collimation: paraboloid mirror, 5 nm Rh on 30 nm Pt
# Beamline.focusing: not in use
# Beamline.harmonic_rejection: flat mirror, Si stripe, pitch = 7.0 mrad relative to beam
# Detector.i0: 10 cm N2
# Detector.i1: 25 cm N2
# Detector.i2: 25 cm N2
# Element.symbol: Ti
# Element.edge: K
# Facility.name: NSLS-II
# Facility.energy: 3.0
# Facility.current: 220.6
# Facility.mode: top-off
# Facility.gup: 301027
# Facility.saf: 304156
# Mono.name: Si(111)
# Mono.d_spacing: 3.13526
# Mono.encoder_resolution: 0.0000050 deg/ct
# Mono.angle_offset: 16.0571 deg
# Mono.scan_mode: pseudo channel cut
# Mono.scan_type: step
# Mono.direction: forward in energy
# Sample.name: Bi2Ce2Ti3O12
# Sample.prep: Powder in polyethylene glycol pellet
# Sample.x_position: -113.290 mm
# Sample.y_position: 117.505 mm
# Sample.wheel_position: 195.000 mm
# Scan.experimenters: Bruce Ravel, Martin Stennett
# Scan.edge_energy: 4966.0
# Scan.start_time: 2019-05-30T21:00:12
# Scan.end_time: 2019-05-30T21:44:13
# Scan.transient_id: 9858
# Scan.uid: 8b242636-752d-41d1-91aa-f0724dad7b0c
# Scan.plot_hint: (DTC1 + DTC2 + DTC3 + DTC4) / I0  --  ($8+$9+$10+$11) / $5
# Scan.sequence: merge of 3 scans
# Column.1: energy eV
# Column.2: requested_energy eV
# Column.3: measurement_time seconds
# Column.4: mutrans
# Column.5: i0
# Column.6: itrans
# Column.7: irefer
# /////
#  sample disk prepared by Martin
# -----
# energy   requested_energy   measurement_time   mutrans   i0   itrans   irefer
4766 4766 0.500000 72.5989 10.7248 0.014755 0.003293
4796.01 4796 0.500000 61.7307 11.4679 0.017574 0.003527
4826.01 4826 0.500000 52.7619 12.244 0.021215 0.003914
4856 4856 0.500000 43.5355 12.9942 0.025379 0.004429
4886.01 4886 0.500000 33.3346 13.7686 0.030209 0.005072
4916 4916 0.500000 27.9636 14.5521 0.036060 0.005889
4938 4938 0.500000 20.9626 15.1069 0.040805 0.006591
4943.99 4944 0.500000 21.9571 15.2434 0.041969 0.006792
4950.01 4950 0.500000 21.4549 15.371 0.043468 0.006973
4956 4956 0.500000 20.9334 15.4987 0.044712 0.007186
4956.74 4956.75 0.500000 20.5486 15.5115 0.044869 0.007229
4957.49 4957.5 0.500000 20.8637 15.5249 0.045048 0.007304
4958.25 4958.25 0.500000 20.2213 15.541 0.044998 0.007270
4959 4959 0.500000 22.539 15.5531 0.045318 0.007224
4959.75 4959.75 0.500000 21.2072 15.569 0.045594 0.007407
4960.5 4960.5 0.500000 20.9244 15.5865 0.045388 0.007278
4961.25 4961.25 0.500000 22.2345 15.6014 0.045605 0.007229
4962 4962 0.500000 23.0572 15.6175 0.046182 0.007437
4962.75 4962.75 0.500000 22.7169 15.6335 0.046094 0.007265
4963.5 4963.5 0.500000 23.5452 15.6491 0.046326 0.007283
4964.25 4964.25 0.500000 25.4702 15.6663 0.046360 0.006921
4965 4965 0.500000 25.3381 15.7155 0.046675 0.006052
4965.75 4965.75 0.500000 27.1636 15.7287 0.046729 0.005603
4966.5 4966.5 0.500000 33.3505 15.7427 0.046808 0.005852
4967.25 4967.25 0.500000 49.3877 15.7476 0.046579 0.006022
4968 4968 0.500000 57.9236 15.8344 0.046835 0.006004
4968.75 4968.75 0.500000 101.713 15.8509 0.046484 0.005728
4969.5 4969.5 0.500000 149.129 15.8556 0.045647 0.005457
4970.25 4970.25 0.500000 108.033 15.8652 0.046506 0.005730
4971 4971 0.500000 90.587 15.899 0.046985 0.005430
4971.75 4971.75 0.500000 87.4933 15.9218 0.047167 0.005328
4972.5 4972.5 0.500000 99.794 15.935 0.047277 0.005236
4973.25 4973.25 0.500000 103.286 15.9462 0.047248 0.005065
4974 4974 0.500000 95.3411 15.9553 0.047566 0.004662
4974.75 4974.75 0.500000 89.0846 15.9624 0.047881 0.004707
4975.5 4975.5 0.500000 88.2131 15.9644 0.048042 0.004442
4976.25 4976.25 0.500000 97.5695 15.962 0.047875 0.004102
4977 4977 0.500000 122.111 15.9629 0.047460 0.004078
4977.75 4977.75 0.500000 161.001 15.9698 0.047008 0.004043
4978.5 4978.5 0.500000 200.943 15.9796 0.046467 0.004034
4979.25 4979.25 0.500000 255.907 15.9848 0.045639 0.003864
4980 4980 0.500000 310.474 15.9785 0.044722 0.003723
4980.75 4980.75 0.500000 375.548 15.9706 0.043373 0.003471
4981.5 4981.5 0.500000 462.04 15.9679 0.042314 0.003565
4982.25 4982.25 0.500000 537.418 15.9748 0.041391 0.003381
4983 4983 0.500000 584.321 15.9831 0.040353 0.003357
4983.75 4983.75 0.500000 596.826 15.9836 0.040380 0.003407
4984.5 4984.5 0.500000 590.902 15.9793 0.040377 0.003479
4985.25 4985.25 0.500000 584.143 15.9837 0.040915 0.003692
4986 4986 0.500000 584.862 15.9889 0.040927 0.003404
4986.75 4986.75 0.500000 597.765 15.9845 0.041025 0.003759
4987.5 4987.5 0.500000 606.943 15.9776 0.040899 0.003476
4988.25 4988.25 0.500000 618.855 15.9841 0.041006 0.003635
4989 4989 0.500000 610.307 16.0164 0.041069 0.003598
4989.75 4989.75 0.500000 622.371 16.0519 0.041151 0.003600
4990.5 4990.5 0.500000 623.586 16.0937 0.041329 0.003679
4991.25 4991.25 0.500000 618.867 16.1306 0.041639 0.003565
4992 4992 0.500000 610.808 16.1639 0.042006 0.003585
4992.75 4992.75 0.500000 608.236 16.1878 0.042311 0.003650
4993.5 4993.5 0.500000 602.147 16.238 0.042625 0.003896
4994.25 4994.25 0.500000 608.184 16.2546 0.042514 0.003606
4995 4995 0.500000 616.093 16.2661 0.042850 0.003828
4995.75 4995.75 0.500000 619.008 16.3981 0.043121 0.003757
4998.19 4998.18 0.730000 628.518 23.9029 0.063078 0.005295
5001.59 5001.58 0.760000 635.046 24.9944 0.066958 0.005475
5005.17 5005.16 0.800000 601.971 26.4962 0.072793 0.005755
5008.92 5008.91 0.840000 556.051 28.0288 0.079253 0.006518
5012.83 5012.83 0.880000 506.257 29.5429 0.086339 0.007314
5016.93 5016.93 0.910000 505.48 30.7174 0.091268 0.007872
5021.19 5021.19 0.950000 504.347 32.2655 0.097252 0.008288
5025.64 5025.63 0.990000 497.714 33.8273 0.104338 0.008997
5030.24 5030.24 1.030000 499.392 35.3977 0.110516 0.009236
5035.02 5035.01 1.060000 512.191 36.6298 0.116083 0.009352
5039.96 5039.97 1.100000 520.599 38.2215 0.122689 0.009347
5045.09 5045.09 1.140000 530.101 39.8273 0.129589 0.010063
5050.38 5050.38 1.180000 546.408 41.4543 0.136937 0.011194
5055.84 5055.84 1.210000 566.449 42.7513 0.142469 0.011936
5061.48 5061.48 1.250000 578.594 44.4245 0.150718 0.013106
5067.28 5067.29 1.290000 584.225 46.1156 0.159340 0.013648
5073.27 5073.27 1.330000 570.663 47.8202 0.169532 0.014152
5079.42 5079.42 1.360000 561.329 49.1664 0.178703 0.014797
5085.74 5085.74 1.400000 554.752 50.863 0.189253 0.014744
5092.23 5092.23 1.440000 552.768 52.5671 0.199689 0.015483
5098.9 5098.9 1.480000 555.849 54.3009 0.210846 0.016824
5105.74 5105.74 1.510000 554.461 55.8621 0.222153 0.018647
5112.74 5112.74 1.550000 559.811 57.8151 0.235162 0.019819
5119.92 5119.92 1.590000 562.695 59.6301 0.248329 0.020786
5127.27 5127.27 1.630000 564.729 61.4712 0.261360 0.021808
5134.79 5134.79 1.660000 577.442 62.9889 0.273886 0.022910
5142.49 5142.49 1.700000 589.645 64.9074 0.288393 0.023810
5150.35 5150.35 1.740000 588.881 66.8569 0.304383 0.024924
5158.39 5158.39 1.780000 588.063 68.8492 0.322378 0.026590
5166.6 5166.6 1.810000 591.562 70.4696 0.338356 0.028655
5174.98 5174.98 1.850000 589.204 72.4838 0.357505 0.030653
5183.53 5183.53 1.890000 592.551 74.545 0.377529 0.032678
5192.25 5192.25 1.930000 599.06 76.5987 0.398310 0.034810
5201.14 5201.14 1.960000 597.683 78.229 0.417830 0.036139
5210.21 5210.21 2.000000 601.922 80.3642 0.441072 0.037630
5219.45 5219.45 2.040000 605.514 82.4921 0.466034 0.040347
5228.85 5228.85 2.080000 607.947 84.5492 0.491032 0.042973
5238.43 5238.43 2.110000 612.96 86.31 0.515175 0.045521
5248.18 5248.18 2.150000 623.649 88.656 0.543888 0.048898
5258.11 5258.11 2.190000 627.536 91.4579 0.577201 0.052092
5268.2 5268.2 2.230000 629.489 93.9109 0.610503 0.055621
5278.47 5278.47 2.260000 635.962 94.6586 0.633818 0.058024
5288.9 5288.9 2.300000 638.62 98.6216 0.680666 0.062450
5299.51 5299.51 2.340000 642.94 101.113 0.719529 0.066475
5310.29 5310.29 2.380000 644.078 103.748 0.761864 0.071506
5321.24 5321.24 2.410000 651.614 105.768 0.800779 0.075697
5332.36 5332.36 2.450000 656.732 108.101 0.844805 0.080907
5343.66 5343.66 2.490000 660.822 110.625 0.891559 0.086318
5355.12 5355.12 2.530000 664.583 112.078 0.933008 0.091765
5366.76 5366.76 2.560000 673.399 115.221 0.989023 0.097794
5378.57 5378.57 2.600000 677.416 117.198 1.037910 0.103321
5390.55 5390.55 2.640000 685.514 119.792 1.095398 0.110968
5402.7 5402.7 2.680000 689.091 121.591 1.146289 0.116826
5415.02 5415.02 2.710000 697.298 122.308 1.190333 0.123610
5427.52 5427.52 2.750000 705.616 123.189 1.236728 0.130366
5440.18 5440.18 2.790000 712.732 124.059 1.285126 0.137068
5453.02 5453.02 2.830000 718.451 125.194 1.338783 0.144774
5466.03 5466.03 2.860000 722.252 126.156 1.393109 0.152022
5479.21 5479.21 2.900000 732.695 127.804 1.457110 0.161149
5492.56 5492.56 2.940000 741.92 129.747 1.527738 0.171300
5506.08 5506.08 2.980000 748.434 131.972 1.605421 0.182178
5519.78 5519.78 3.010000 756.745 134.158 1.685916 0.193859
5533.64 5533.64 3.050000 762.014 137.381 1.784610 0.208145
5547.68 5547.68 3.090000 774.571 140.507 1.886685 0.222537
5561.89 5561.89 3.130000 779.125 143.887 1.997010 0.238469
5576.27 5576.27 3.160000 788.485 146.479 2.102476 0.254465
5590.82 5590.82 3.200000 795.968 149.606 2.220301 0.272417
5605.54 5605.54 3.240000 803.988 152.415 2.338079 0.290504
5620.44 5620.44 3.280000 810.342 155.346 2.464316 0.310422
5635.5 5635.5 3.310000 821.542 156.637 2.570236 0.328674
5650.74 5650.74 3.350000 826.25 159.092 2.699893 0.350568
5666.15 5666.15 3.390000 838.931 161.991 2.844378 0.374777
5681.73 5681.73 3.430000 848.159 165.338 2.999788 0.400317
5697.48 5697.48 3.460000 858.666 168.067 3.147934 0.426207
5708.08 5708.08 3.490000 869.116 170.564 3.254099 0.445312