Folder: webxdiviewer/xdidata/Data/Tm

Note: xdidata/README.md
# bmm-standards
A pretty webpage for BMM's collection of common XAFS materials

[BMM's common materials collection](./BMM-standards.html)

Plotting of the data will happen soon.

Periodic table adapted from [some guy named Daniel](https://codepen.io/gooseofmusic/pen/PjKdNQ)

[This](https://www.coderstool.com/scss-to-css) is a helpful tool for
dealing with Sassy CSS.

File: Tm-L1-ThuliumOxide.xdi
# XDI/1.0 BlueSky/1.10.0 BMM/2023-1.0-py310-tiled
# Beamline.name: BMM (06BM) -- Beamline for Materials Measurement (NIST)
# Beamline.xray_source: NSLS-II three-pole wiggler
# Beamline.collimation: paraboloid mirror, 5 nm Rh on 30 nm Pt
# Beamline.focusing: not in use
# Beamline.harmonic_rejection: flat mirror, Pt stripe, pitch = 7.0 mrad relative to beam
# Beamline.software: Bluesky 1.10.0, Ophyd 1.7.0, DataBroker 2.0.0b13, Python 3.10.8, 2023-1.0-py310-tiled
# Detector.I0: 10 cm N2
# Detector.I1: 25 cm N2
# Detector.I2: 25 cm N2
# Element.symbol: Tm
# Element.edge: L1
# Element.reference: Tm
# Element.reference_material: Tm2O3
# Facility.name: NSLS-II
# Facility.energy: 3.0
# Facility.current: 399.1
# Facility.mode: top-off
# Facility.GUP: 301027
# Facility.SAF: 310583
# Facility.cycle: 2023-2
# Mono.name: Si(111)
# Mono.d_spacing: 3.13519
# Mono.encoder_resolution: 0.0000050 deg/ct
# Mono.angle_offset: 16.0754 deg
# Mono.scan_mode: pseudo channel cut
# Mono.scan_type: step
# Mono.direction: forward in energy
# Sample.name: Tm2O3
# Sample.prep: PEG pellet
# Sample.x: 109.138 mm
# Sample.y: 153.150 mm
# Sample.SDD_position: 205.000 mm
# Scan.experimenters: Bruce Ravel
# Scan.edge_energy: 10115.7
# Scan.start_time: 2023-05-28T17:28:36
# Scan.end_time: 2023-05-28T17:37:41
# Scan.transient_id: 78875
# Scan.uid: 960233a9-57fd-46de-89e4-ffed7eb1a5c7
# Scan.plot_hint: ln(It/Ir)  --  ln($6/$7)
# Column.1: energy eV
# Column.2: requested_energy eV
# Column.3: measurement_time seconds
# Column.4: xmu
# Column.5: I0 nA
# Column.6: It nA
# Column.7: Ir nA
# ///////////
# sample courtesy Martin Stennett, University of Sheffield
# -----------
# energy  requested_energy  measurement_time  xmu  I0  It  Ir
  9915.538  9915.700  0.500  0.989053  98.8463  150.527  55.9853
  9945.783  9945.700  0.500  0.982506  98.3438  150.112  56.1976
  9975.739  9975.700  0.500  0.975873  97.8235  149.674  56.4067
  10005.706  10005.700  0.500  0.969556  97.317  149.204  56.5857
  10035.736  10035.700  0.500  0.963031  95.8114  147.226  56.2012
  10065.731  10065.700  0.500  0.956400  96.1864  148.108  56.9141
  10087.702  10087.700  0.500  0.952906  95.6517  147.52  56.8863
  10093.691  10093.700  0.500  0.951924  95.6028  147.496  56.9329
  10099.718  10099.700  0.500  0.951241  95.5469  147.49  56.9698
  10105.725  10105.700  0.500  0.950485  95.8394  147.987  57.205
  10106.556  10106.600  0.500  0.950923  95.7712  147.887  57.1413
  10107.458  10107.500  0.500  0.950758  95.7714  147.909  57.1593
  10108.378  10108.400  0.500  0.950853  95.7478  147.877  57.1413
  10109.280  10109.300  0.500  0.950950  95.7199  147.829  57.1172
  10110.156  10110.200  0.500  0.950953  95.6969  147.811  57.1102
  10111.143  10111.100  0.500  0.951128  95.6706  147.804  57.0975
  10111.957  10112.000  0.500  0.951306  95.5928  147.687  57.0421
  10112.856  10112.900  0.500  0.951368  95.5237  147.58  56.9971
  10113.763  10113.800  0.500  0.951971  95.5025  147.547  56.9502
  10114.666  10114.700  0.500  0.952815  95.4589  147.494  56.8818
  10115.579  10115.600  0.500  0.953716  95.4484  147.498  56.8318
  10116.473  10116.500  0.500  0.955167  95.4255  147.463  56.7362
  10117.382  10117.400  0.500  0.957161  95.4048  147.446  56.6166
  10118.272  10118.300  0.500  0.959342  95.397  147.42  56.4833
  10119.185  10119.200  0.500  0.961941  95.3727  147.422  56.3374
  10120.076  10120.100  0.500  0.964306  95.3469  147.379  56.1879
  10120.994  10121.000  0.500  0.966388  95.3357  147.373  56.0687
  10121.903  10121.900  0.500  0.968740  95.2956  147.308  55.9124
  10122.799  10122.800  0.500  0.970705  95.2939  147.331  55.8114
  10123.699  10123.700  0.500  0.973389  95.2495  147.281  55.6429
  10124.586  10124.600  0.500  0.975746  95.2471  147.283  55.5126
  10125.492  10125.500  0.500  0.978685  95.205  147.23  55.3297
  10126.379  10126.400  0.500  0.981756  95.1796  147.198  55.1481
  10127.289  10127.300  0.500  0.985114  95.1672  147.185  54.9585
  10128.204  10128.200  0.500  0.989124  95.1473  147.167  54.7319
  10129.105  10129.100  0.500  0.993309  95.1354  147.154  54.4982
  10130.002  10130.000  0.500  0.997610  95.1095  147.107  54.2473
  10130.900  10130.900  0.500  1.000757  95.1035  147.1  54.0741
  10131.797  10131.800  0.500  1.002697  95.341  147.474  54.1065
  10132.699  10132.700  0.500  1.003096  95.3563  147.531  54.106
  10133.597  10133.600  0.500  1.002333  95.3503  147.525  54.145
  10134.504  10134.500  0.500  1.001127  95.3245  147.479  54.1932
  10135.393  10135.400  0.500  1.000103  95.258  147.407  54.2223
  10136.287  10136.300  0.500  0.999373  95.2422  147.376  54.2507
  10137.199  10137.200  0.500  0.999646  95.2397  147.388  54.24
  10138.102  10138.100  0.500  0.999739  95.236  147.39  54.236
  10139.001  10139.000  0.500  1.000114  95.2164  147.378  54.2113
  10139.904  10139.900  0.500  1.000130  95.2134  147.359  54.2032
  10140.705  10140.700  0.500  1.000314  95.1698  147.319  54.1787
  10143.720  10143.710  0.500  0.998386  95.1032  147.254  54.2592
  10146.919  10146.900  0.500  0.993394  95.0369  147.162  54.4966
  10150.281  10150.260  0.500  0.987784  94.9825  147.125  54.7894
  10153.783  10153.780  0.500  0.983129  94.9027  147.045  55.0152
  10157.502  10157.480  0.500  0.980375  94.8344  146.977  55.1413
  10161.349  10161.350  0.500  0.979814  94.7515  146.879  55.1356
  10165.409  10165.400  0.500  0.979965  94.6644  146.798  55.0968
  10169.621  10169.610  0.500  0.980384  94.5932  146.717  55.0433
  10173.997  10173.990  0.500  0.981537  94.507  146.622  54.9445
  10178.561  10178.550  0.500  0.983010  94.4232  146.539  54.8323
  10183.282  10183.280  0.500  0.984857  94.3198  146.413  54.6842
  10188.196  10188.180  0.500  0.985605  94.2335  146.338  54.6153
  10193.259  10193.250  0.500  0.984065  94.0866  146.153  54.6301
  10198.511  10198.490  0.500  0.980421  94.0479  146.138  54.8243
  10203.918  10203.910  0.500  0.976576  93.9333  146.019  54.9906
  10209.480  10209.490  0.500  0.974628  93.8229  145.929  55.0636
  10215.260  10215.250  0.500  0.973674  93.7233  145.799  55.0673
  10221.187  10221.180  0.500  0.972603  93.6037  145.689  55.0846
  10227.302  10227.280  0.500  0.970757  93.4392  145.512  55.1195
  10233.552  10233.550  0.500  0.968730  93.3521  145.402  55.1895
  10239.986  10239.990  0.500  0.967153  92.9162  144.798  55.047
  10246.593  10246.600  0.500  0.966713  93.1009  145.159  55.2083
  10253.390  10253.390  0.500  0.966918  92.9696  145.032  55.1491
  10260.361  10260.350  0.500  0.966923  92.8408  144.864  55.0849
  10267.473  10267.470  0.500  0.965258  92.694  144.725  55.1237
  10274.775  10274.770  0.500  0.963620  92.5294  144.55  55.1471
  10282.251  10282.250  0.500  0.960992  92.4134  144.416  55.241
  10289.899  10289.890  0.500  0.957794  92.2608  144.253  55.3555
  10297.706  10297.700  0.500  0.955927  92.0906  144.064  55.3863
  10305.709  10305.690  0.500  0.954928  91.9423  143.896  55.3771
  10313.848  10313.850  0.500  0.953367  91.79  143.739  55.4028
  10322.172  10322.170  0.500  0.951498  91.52  143.398  55.375
  10330.685  10330.670  0.500  0.949556  91.456  143.384  55.477
  10339.370  10339.350  0.500  0.947534  91.2787  143.187  55.5128
  10348.200  10348.190  0.500  0.945973  91.1238  143.003  55.5284
  10357.217  10357.200  0.500  0.944973  90.9424  142.819  55.5124
  10366.404  10366.390  0.500  0.943552  90.7489  142.6  55.5059
  10375.751  10375.750  0.500  0.941294  90.5402  142.33  55.526
  10385.266  10385.270  0.500  0.938941  90.3508  142.148  55.5859
  10394.990  10394.970  0.500  0.936273  90.169  141.928  55.6479
  10404.860  10404.850  0.500  0.933789  89.9819  141.721  55.705
  10414.894  10414.890  0.500  0.931876  89.7814  141.498  55.7241
  10425.127  10425.100  0.500  0.930272  89.5732  141.254  55.7172
  10435.504  10435.490  0.500  0.928280  89.3739  141.024  55.7374
  10446.085  10446.050  0.500  0.925880  89.4433  141.234  55.9545
  10456.812  10456.780  0.500  0.923961  89.258  141.054  55.9905
  10467.690  10467.680  0.500  0.921930  89.0524  140.801  56.0036
  10478.771  10478.750  0.500  0.919573  88.8434  140.578  56.0468
  10490.010  10489.990  0.500  0.917326  88.6291  140.328  56.0732
  10501.446  10501.410  0.500  0.915041  88.4019  140.069  56.0978
  10513.031  10512.990  0.500  0.912613  88.1268  139.733  56.099
  10524.763  10524.750  0.500  0.909968  87.9012  139.466  56.1401
  10536.723  10536.680  0.500  0.907564  87.7147  139.269  56.1957
  10548.794  10548.780  0.500  0.905098  87.4809  138.984  56.2194
  10561.081  10561.050  0.500  0.902699  87.2387  138.701  56.2396
  10573.523  10573.490  0.500  0.900635  86.9967  138.438  56.2488
  10586.141  10586.110  0.500  0.898243  86.544  137.814  56.1296
  10598.930  10598.890  0.500  0.895847  86.4019  137.706  56.2201
  10611.879  10611.850  0.500  0.892963  86.1588  137.406  56.2595
  10625.011  10624.980  0.500  0.890303  85.9973  137.242  56.3421
  10638.294  10638.280  0.500  0.887824  85.7369  136.941  56.3581
  10651.778  10651.750  0.500  0.885413  85.486  136.644  56.3717
  10665.430  10665.400  0.500  0.883051  85.2353  136.351  56.3838
  10679.232  10679.210  0.500  0.880850  84.4737  135.224  56.0409
  10693.224  10693.200  0.500  0.877483  84.6763  135.654  56.4089
  10707.398  10707.360  0.500  0.874849  84.4203  135.354  56.4324
  10721.704  10721.690  0.500  0.872332  84.1396  135.016  56.4335
  10736.225  10736.190  0.500  0.869726  83.8612  134.655  56.4294
  10750.880  10750.860  0.500  0.867122  83.5654  134.304  56.4292
  10765.723  10765.700  0.500  0.864119  83.2719  133.942  56.4463
  10780.758  10780.720  0.500  0.861271  82.9747  133.558  56.445
  10795.938  10795.900  0.500  0.858316  82.6742  133.208  56.4634
  10811.302  10811.260  0.500  0.855599  82.3967  132.882  56.4787
  10826.819  10826.790  0.500  0.852862  82.0762  132.46  56.4537
  10842.518  10842.490  0.500  0.850096  81.7701  132.073  56.4444
  10858.402  10858.360  0.500  0.847242  81.4617  131.694  56.4435
  10874.446  10874.410  0.500  0.844217  81.1506  131.288  56.44
  10890.657  10890.620  0.500  0.841128  80.8289  130.874  56.436
  10907.031  10907.010  0.500  0.838110  80.5067  130.454  56.4248
  10923.595  10923.570  0.500  0.835106  80.1706  130.034  56.4126
  10940.319  10940.300  0.500  0.832487  79.8637  129.65  56.3932
  10957.215  10957.200  0.500  0.829600  79.5299  129.213  56.3659
  10968.568  10968.560  0.500  0.827615  79.3104  128.93  56.3541