Folder: webxdiviewer/xdidata/Data/V

Note: xdidata/README.md
# bmm-standards
A pretty webpage for BMM's collection of common XAFS materials

[BMM's common materials collection](./BMM-standards.html)

Plotting of the data will happen soon.

Periodic table adapted from [some guy named Daniel](https://codepen.io/gooseofmusic/pen/PjKdNQ)

[This](https://www.coderstool.com/scss-to-css) is a helpful tool for
dealing with Sassy CSS.

File: V-V2O5.xdi
# XDI/1.0 BlueSky/1.10.0 BMM/2023-1.0-py310-tiled
# Beamline.name: BMM (06BM) -- Beamline for Materials Measurement (NIST)
# Beamline.xray_source: NSLS-II three-pole wiggler
# Beamline.collimation: paraboloid mirror, 5 nm Rh on 30 nm Pt
# Beamline.focusing: not in use
# Beamline.harmonic_rejection: flat mirror, Si stripe, pitch = 7.0 mrad relative to beam
# Beamline.software: Bluesky 1.10.0, Ophyd 1.7.0, DataBroker 2.0.0b13, Python 3.10.8, 2023-1.0-py310-tiled
# Detector.I0: 10 cm N2
# Detector.I1: 25 cm N2
# Detector.I2: 25 cm N2
# Element.symbol: V
# Element.edge: K
# Element.reference: V
# Element.reference_material: V foil
# Facility.name: NSLS-II
# Facility.energy: 3.0
# Facility.current: 399.7
# Facility.mode: top-off
# Facility.GUP: 123456
# Facility.SAF: 301027
# Facility.cycle: 2023-2
# Mono.name: Si(111)
# Mono.d_spacing: 3.13519
# Mono.encoder_resolution: 0.0000050 deg/ct
# Mono.angle_offset: 16.0754 deg
# Mono.scan_mode: pseudo channel cut
# Mono.scan_type: step
# Mono.direction: forward in energy
# Sample.name: V2O5
# Sample.prep: Powder in PEG pellet
# Sample.x: 116.329 mm
# Sample.y: 114.126 mm
# Sample.SDD_position: 205.000 mm
# Scan.experimenters: Bruce Ravel
# Scan.edge_energy: 5465.1
# Scan.start_time: 2023-05-06T09:35:39
# Scan.end_time: 2023-05-06T09:43:05
# Scan.transient_id: 74689
# Scan.uid: 1ee5456a-5ea3-4b1a-a4d8-e2e82b685cae
# Scan.plot_hint: ln(I0/It)  --  ln($5/$6)
# Column.1: energy eV
# Column.2: requested_energy eV
# Column.3: measurement_time seconds
# Column.4: xmu
# Column.5: I0 nA
# Column.6: It nA
# Column.7: Ir nA
# ///////////
# Alfa Aesar; Vanadium (V) oxide (99.2%); 11093; Lot H03Q11
# -----------
# energy  requested_energy  measurement_time  xmu  I0  It  Ir
  5265.105  5265.100  0.500  3.908149  98.6344  1.980344  0.305996
  5295.117  5295.100  0.500  3.831572  100.446  2.177225  0.347371
  5325.109  5325.100  0.500  3.755834  102.125  2.387774  0.392928
  5355.240  5355.100  0.500  3.681891  103.7  2.610670  0.442790
  5385.096  5385.100  0.500  3.610799  105.224  2.844225  0.496934
  5415.090  5415.100  0.500  3.541080  106.543  3.087825  0.555065
  5437.094  5437.100  0.500  3.492458  107.345  3.266075  0.599135
  5443.096  5443.100  0.500  3.479363  107.838  3.324324  0.612436
  5449.092  5449.100  0.500  3.467964  108.045  3.368895  0.623305
  5455.094  5455.100  0.500  3.457454  108.269  3.411547  0.632625
  5455.991  5456.000  0.500  3.456952  108.291  3.413943  0.633665
  5456.894  5456.900  0.500  3.455059  108.285  3.420217  0.634508
  5457.791  5457.800  0.500  3.454424  108.281  3.422277  0.634731
  5458.692  5458.700  0.500  3.453421  108.289  3.425963  0.634657
  5459.594  5459.600  0.500  3.452234  108.287  3.429984  0.634662
  5460.492  5460.500  0.500  3.452661  108.322  3.429622  0.633134
  5461.393  5461.400  0.500  3.453467  108.325  3.426936  0.630290
  5462.298  5462.300  0.500  3.454608  108.357  3.424063  0.624684
  5463.194  5463.200  0.500  3.456619  108.355  3.417100  0.609922
  5464.101  5464.100  0.500  3.460311  108.401  3.405964  0.551509
  5464.995  5465.000  0.500  3.469211  108.421  3.376389  0.457758
  5465.901  5465.900  0.500  3.491003  108.437  3.304103  0.470140
  5466.797  5466.800  0.500  3.556485  108.461  3.095373  0.438597
  5467.699  5467.700  0.500  3.634299  108.465  2.863748  0.386282
  5468.598  5468.600  0.500  3.909822  108.483  2.174439  0.278620
  5469.501  5469.500  0.500  4.447460  108.521  1.270590  0.156841
  5470.399  5470.400  0.500  4.224117  108.515  1.588472  0.192433
  5471.299  5471.300  0.500  3.935721  108.545  2.120063  0.255212
  5472.199  5472.200  0.500  3.769008  108.558  2.504966  0.294945
  5473.100  5473.100  0.500  3.685217  108.582  2.724510  0.302091
  5473.996  5474.000  0.500  3.631195  108.606  2.876385  0.296671
  5474.901  5474.900  0.500  3.623391  108.624  2.899387  0.281215
  5475.802  5475.800  0.500  3.651291  108.643  2.820114  0.260607
  5476.702  5476.700  0.500  3.699290  108.677  2.688792  0.237667
  5477.604  5477.600  0.500  3.788448  108.681  2.459524  0.207962
  5478.499  5478.500  0.500  3.920820  108.722  2.155386  0.175110
  5479.400  5479.400  0.500  4.052483  108.723  1.889516  0.147909
  5480.302  5480.300  0.500  4.206571  108.743  1.619980  0.122369
  5481.200  5481.200  0.500  4.363871  108.792  1.384813  0.101480
  5482.102  5482.100  0.500  4.469903  108.815  1.245757  0.088719
  5483.000  5483.000  0.500  4.560544  108.825  1.137919  0.079005
  5483.899  5483.900  0.500  4.706905  108.839  0.983110  0.068327
  5484.800  5484.800  0.500  4.840519  108.876  0.860443  0.061390
  5485.698  5485.700  0.500  4.922184  108.895  0.793106  0.059109
  5486.600  5486.600  0.500  4.944278  108.906  0.775856  0.060116
  5487.499  5487.500  0.500  4.926645  108.95  0.789972  0.062575
  5488.401  5488.400  0.500  4.900516  108.965  0.811000  0.064724
  5489.301  5489.300  0.500  4.915557  108.957  0.798830  0.063139
  5490.100  5490.100  0.500  4.966439  109.001  0.759511  0.059194
  5493.124  5493.110  0.500  5.089866  109.065  0.671716  0.050123
  5496.296  5496.300  0.500  5.040065  109.403  0.708201  0.054432
  5499.661  5499.660  0.500  4.969971  109.508  0.760349  0.056803
  5503.179  5503.180  0.500  4.972233  109.597  0.759253  0.055444
  5506.879  5506.880  0.500  5.032816  109.64  0.714901  0.051868
  5510.753  5510.750  0.500  4.949739  109.696  0.777225  0.054907
  5514.803  5514.800  0.500  4.846865  109.717  0.861600  0.062275
  5519.010  5519.010  0.500  4.774154  109.787  0.927175  0.068641
  5523.394  5523.390  0.500  4.775257  109.83  0.926520  0.072453
  5527.958  5527.950  0.500  4.752013  109.886  0.948785  0.077258
  5532.689  5532.680  0.500  4.708553  109.935  0.991376  0.081180
  5537.590  5537.580  0.500  4.690248  109.978  1.010086  0.078724
  5542.660  5542.650  0.500  4.690051  110.06  1.011033  0.078414
  5547.900  5547.890  0.500  4.697186  110.092  1.004138  0.082825
  5553.319  5553.310  0.500  4.691941  110.16  1.010040  0.086183
  5558.896  5558.890  0.500  4.685597  110.192  1.016768  0.080521
  5564.670  5564.650  0.500  4.682831  110.245  1.020072  0.075120
  5570.601  5570.580  0.500  4.679988  110.265  1.023159  0.078192
  5576.699  5576.680  0.500  4.661927  110.343  1.042546  0.087271
  5582.964  5582.950  0.500  4.646985  110.332  1.058140  0.091333
  5589.389  5589.390  0.500  4.613733  110.447  1.095057  0.094504
  5595.999  5596.000  0.500  4.577003  110.463  1.136189  0.100994
  5602.788  5602.790  0.500  4.558269  110.533  1.158410  0.103118
  5609.758  5609.750  0.500  4.528313  110.555  1.193867  0.104725
  5616.882  5616.870  0.500  4.519205  110.632  1.205628  0.104338
  5624.181  5624.170  0.500  4.519377  110.674  1.205878  0.101034
  5631.643  5631.650  0.500  4.501109  110.693  1.228330  0.105270
  5639.298  5639.290  0.500  4.476081  110.719  1.259750  0.113551
  5647.104  5647.100  0.500  4.443551  110.729  1.301518  0.120304
  5655.091  5655.090  0.500  4.413093  110.662  1.340959  0.126406
  5663.254  5663.250  0.500  4.396171  110.545  1.362410  0.130701
  5671.576  5671.570  0.500  4.382589  110.448  1.379819  0.135618
  5680.076  5680.070  0.500  4.364267  110.272  1.403098  0.136226
  5688.763  5688.750  0.500  4.333816  110.002  1.442946  0.137252
  5697.599  5697.590  0.500  4.304143  109.701  1.482335  0.139581
  5706.610  5706.600  0.500  4.279353  109.371  1.514960  0.147658
  5715.800  5715.790  0.500  4.253448  108.931  1.548465  0.156567
  5725.144  5725.150  0.500  4.228039  108.46  1.581453  0.162135
  5734.682  5734.670  0.500  4.206041  107.881  1.607992  0.167199
  5744.363  5744.370  0.500  4.188449  107.208  1.626331  0.171195
  5754.277  5754.250  0.500  4.169595  106.48  1.646027  0.175896
  5764.274  5764.290  0.500  4.145878  105.65  1.672390  0.179413
  5774.485  5774.500  0.500  4.118468  104.863  1.706053  0.182839
  5784.879  5784.890  0.500  4.091013  103.949  1.738271  0.187679
  5795.442  5795.450  0.500  4.066938  103.047  1.765164  0.193891
  5806.168  5806.180  0.500  4.039846  102.091  1.796827  0.201746
  5817.067  5817.080  0.500  4.012939  101.096  1.827840  0.208725
  5828.137  5828.150  0.500  3.988250  100.507  1.862601  0.215275
  5839.378  5839.390  0.500  3.963993  99.5764  1.890672  0.220908
  5850.801  5850.810  0.500  3.936415  98.5538  1.923579  0.227217
  5862.415  5862.390  0.500  3.909783  97.3981  1.952331  0.233407
  5874.139  5874.150  0.500  3.885084  88.9173  1.826905  0.219809
  5886.074  5886.080  0.500  3.857209  96.5316  2.039412  0.248923
  5898.167  5898.180  0.500  3.831193  95.4097  2.068839  0.256315
  5910.444  5910.450  0.500  3.807616  93.946  2.085701  0.262173
  5922.879  5922.890  0.500  3.783591  94.2193  2.142630  0.273026
  5935.500  5935.510  0.500  3.759177  93.3218  2.174670  0.280227
  5948.280  5948.290  0.500  3.732624  93.1589  2.229290  0.291538
  5961.236  5961.250  0.500  3.705435  91.605  2.252524  0.298611
  5974.365  5974.380  0.500  3.677061  90.3909  2.286638  0.306605
  5987.667  5987.680  0.500  3.649422  87.0298  2.263309  0.306724
  6001.138  6001.150  0.500  3.622779  89.0386  2.378075  0.326588
  6014.789  6014.800  0.500  3.596612  87.6969  2.404336  0.334702
  6028.594  6028.610  0.500  3.569800  86.516  2.436418  0.343720
  6042.584  6042.600  0.500  3.542228  85.2897  2.469031  0.352829
  6056.745  6056.760  0.500  3.514178  83.8303  2.495818  0.361701
  6071.072  6071.090  0.500  3.486256  82.3288  2.520518  0.369752
  6085.575  6085.590  0.500  3.459352  80.8766  2.543580  0.378168
  6100.251  6100.260  0.500  3.433402  79.3682  2.561765  0.385673
  6105.179  6105.190  0.500  3.424637  78.8082  2.566083  0.387935