Folder: webxdiviewer/xdidata/Data/Y

Note: xdidata/README.md
# bmm-standards
A pretty webpage for BMM's collection of common XAFS materials

[BMM's common materials collection](./BMM-standards.html)

Plotting of the data will happen soon.

Periodic table adapted from [some guy named Daniel](https://codepen.io/gooseofmusic/pen/PjKdNQ)

[This](https://www.coderstool.com/scss-to-css) is a helpful tool for
dealing with Sassy CSS.

File: Y-K-foil.xdi
# XDI/1.0 BlueSky/1.5.3
# Beamline.name: 6BM
# Beamline.xray_source: NSLS-II three-pole wiggler
# Beamline.collimation: paraboloid mirror, 5 nm Rh on 30 nm Pt
# Beamline.focusing: not in use
# Beamline.harmonic_rejection: flat mirror, Pt stripe, pitch = 7.0 mrad relative to beam
# Detector.i0: 10 cm N2
# Detector.i1: 25 cm N2
# Detector.i2: 25 cm N2
# Element.symbol: Y
# Element.edge: K
# Facility.name: NSLS-II
# Facility.energy: 3.0
# Facility.current: 399.3
# Facility.mode: top-off
# Facility.gup: 301027
# Facility.saf: 304793
# Mono.name: Si(111)
# Mono.d_spacing: 3.13532
# Mono.encoder_resolution: 0.0000050 deg/ct
# Mono.angle_offset: 16.0581 deg
# Mono.scan_mode: fixed exit
# Mono.scan_type: step
# Mono.direction: forward in energy
# Sample.name: Y foil
# Sample.prep: foil standard
# Sample.x_position: -54.942 mm
# Sample.y_position: 110.034 mm
# Sample.wheel_position: -135.000 mm
# Scan.experimenters: Martin Stennett, Bruce Ravel, Sarah Nicolas
# Scan.edge_energy: 17038.0
# Scan.start_time: 2019-10-18T20:23:07
# Scan.end_time: 2019-10-18T20:53:36
# Scan.transient_id: 15397
# Scan.uid: c5fe30bd-9ded-4d70-87ba-3344341b164d
# Scan.plot_hint: ln(It/Ir)  --  ln($6/$7)
# Scan.sequence: merge of 3 scans
# Column.1: energy eV
# Column.2: requested_energy eV
# Column.3: measurement_time seconds
# Column.4: mutrans
# Column.5: i0
# Column.6: itrans
# /////
#  foil standard
# -----
# energy   requested_energy   measurement_time   mutrans   i0   itrans
16838 16838 1.000000 0.274136 45.6376 34.6951
16858.1 16858 1.000000 0.273300 51.6934 39.3317
16878.1 16878 1.000000 0.272725 51.4161 39.1432
16898.1 16898 1.000000 0.272151 51.0782 38.9083
16918.1 16918 1.000000 0.271664 50.6128 38.5725
16938.1 16938 1.000000 0.271717 47.8231 36.4446
16958.1 16958 1.000000 0.272045 50.5581 38.5162
16978.1 16978 1.000000 0.273501 50.1595 38.1569
16998.1 16998 1.000000 0.277765 49.965 37.8473
17010 17010 1.000000 0.283968 49.7951 37.4852
17014 17014 1.000000 0.287964 49.7334 37.2899
17018 17018 1.000000 0.293416 49.6721 37.0411
17021.9 17022 1.000000 0.302042 49.6181 36.6824
17025.9 17026 1.000000 0.318021 49.5668 36.0677
17028.4 17028.5 1.000000 0.336416 49.5271 35.3827
17029.5 17029.5 1.000000 0.347549 49.5196 34.9794
17030.5 17030.5 1.000000 0.362735 49.509 34.441
17031.5 17031.5 1.000000 0.385252 49.492 33.6465
17032.5 17032.5 1.000000 0.420099 49.4731 32.4835
17033.5 17033.5 1.000000 0.472985 49.4591 30.8016
17034.5 17034.5 1.000000 0.550438 49.4679 28.5372
17035.5 17035.5 1.000000 0.644961 49.4298 25.9141
17036.5 17036.5 1.000000 0.741446 49.4393 23.5556
17037.5 17037.5 1.000000 0.817249 49.3985 21.829
17038.5 17038.5 1.000000 0.869663 49.4047 20.6942
17039.5 17039.5 1.000000 0.913925 49.3723 19.7825
17040.5 17040.5 1.000000 0.971129 49.3648 18.697
17041.5 17041.5 1.000000 1.049196 49.3394 17.2728
17042.5 17042.5 1.000000 1.147156 49.3246 15.677
17043.5 17043.5 1.000000 1.258494 49.2907 14.0238
17044.5 17044.5 1.000000 1.371743 49.2819 12.5196
17045.5 17045.5 1.000000 1.473222 49.3272 11.3196
17046.5 17046.5 1.000000 1.551439 49.3095 10.46
17047.5 17047.5 1.000000 1.597480 49.2717 9.970940
17048.5 17048.5 1.000000 1.612844 49.2349 9.813906
17049.5 17049.5 1.000000 1.606919 49.2024 9.865953
17050.5 17050.5 1.000000 1.589468 49.1706 10.0367
17051.5 17051.5 1.000000 1.569860 49.1349 10.2237
17052.5 17052.5 1.000000 1.552317 49.0897 10.3964
17053.5 17053.5 1.000000 1.538559 49.0598 10.5299
17054.5 17054.5 1.000000 1.529542 49.0759 10.6296
17055.5 17055.5 1.000000 1.526052 49.0536 10.6636
17056.5 17056.5 1.000000 1.528607 49.0228 10.6313
17057.5 17057.5 1.000000 1.536573 48.9983 10.5407
17058.5 17058.5 1.000000 1.547434 48.9409 10.4143
17059.5 17059.5 1.000000 1.558358 48.9282 10.2981
17060.5 17060.5 1.000000 1.565520 48.8679 10.2117
17061.5 17061.5 1.000000 1.566765 48.8124 10.189
17062.5 17062.5 1.000000 1.561363 48.784 10.2381
17063.5 17063.5 1.000000 1.550534 48.7102 10.3349
17064.5 17064.5 1.000000 1.537326 48.7107 10.4712
17065.5 17065.5 1.000000 1.524072 48.6392 10.5932
17066.5 17066.5 1.000000 1.513022 48.5521 10.6928
17067.5 17067.5 1.000000 1.505918 48.4489 10.7472
17069.1 17069.1 1.000000 1.500119 48.1711 10.7467
17071.3 17071.3 1.000000 1.496235 47.1527 10.561
17073.6 17073.6 1.000000 1.490151 43.2712 9.750779
17076 17076 1.000000 1.484866 42.2992 9.582072
17078.4 17078.4 1.000000 1.489476 47.7444 10.7655
17080.9 17080.9 1.000000 1.502160 49.1953 10.9523
17083.5 17083.5 1.000000 1.516008 49.1825 10.8013
17086.2 17086.2 1.000000 1.519099 49.1143 10.7514
17088.9 17088.9 1.000000 1.503900 49.002 10.8913
17091.8 17091.8 1.000000 1.482612 48.9463 11.1142
17094.7 17094.7 1.000000 1.470011 48.8682 11.2359
17097.6 17097.6 1.000000 1.464912 48.7889 11.2749
17100.7 17100.7 1.000000 1.462942 48.7323 11.2841
17103.8 17103.8 1.000000 1.466411 48.6857 11.2339
17107 17107 1.000000 1.477369 48.6015 11.0924
17110.3 17110.3 1.000000 1.490354 48.5599 10.9401
17113.7 17113.7 1.000000 1.494544 48.4771 10.876
17117.1 17117.1 1.000000 1.486191 48.4404 10.9585
17120.6 17120.6 1.000000 1.469918 48.3826 11.1243
17124.2 17124.2 1.000000 1.454864 48.3047 11.2753
17127.9 17127.8 1.000000 1.449754 48.2279 11.3156
17131.6 17131.6 1.000000 1.452294 48.1929 11.2785
17135.4 17135.4 1.000000 1.456085 48.1836 11.234
17139.3 17139.3 1.000000 1.458392 48.1112 11.1911
17143.3 17143.3 1.000000 1.459232 48.0723 11.1727
17147.3 17147.3 1.000000 1.458197 47.9897 11.165
17151.5 17151.4 1.000000 1.451418 47.9526 11.2323
17155.6 17155.6 1.000000 1.441159 47.8966 11.3349
17159.9 17159.9 1.000000 1.432144 47.8233 11.4201
17164.2 17164.2 1.000000 1.426592 47.7966 11.477
17168.7 17168.7 1.000000 1.425908 47.7178 11.4661
17173.2 17173.2 1.000000 1.428835 47.6743 11.4222
17177.7 17177.7 1.000000 1.434232 47.6783 11.3617
17182.4 17182.4 1.000000 1.437804 47.6182 11.3069
17187.1 17187.1 1.000000 1.438058 47.5202 11.2807
17192 17191.9 1.000000 1.431879 47.4842 11.3421
17196.8 17196.8 1.000000 1.422837 47.4076 11.4268
17201.8 17201.8 1.000000 1.414979 47.3497 11.5026
17206.8 17206.8 1.000000 1.406745 47.2552 11.574
17211.9 17211.9 1.000000 1.401173 47.2019 11.6262
17217.1 17217.1 1.000000 1.403120 47.1618 11.5939
17222.4 17222.3 1.000000 1.410914 47.1143 11.4921
17227.7 17227.7 1.000000 1.420640 47.0003 11.353
17233.1 17233.1 1.000000 1.425599 46.9795 11.2924
17238.6 17238.6 1.000000 1.421233 46.9126 11.3244
17244.3 17244.2 1.000000 1.412794 46.8288 11.3985
17249.9 17249.8 1.000000 1.407064 46.7481 11.4472
17256.1 17255.5 1.000000 1.403010 46.6527 11.473
17261.3 17261.3 1.000000 1.398673 46.5596 11.4966
17267.2 17267.2 1.000000 1.396104 46.5176 11.5159
17273.2 17273.1 1.000000 1.396416 46.4268 11.4898
17279.2 17279.2 1.000000 1.398634 46.3419 11.4433
17285.3 17285.3 1.000000 1.402061 46.2922 11.392
17291.5 17291.5 1.000000 1.403554 46.2025 11.353
17297.7 17297.7 1.000000 1.400507 46.1132 11.3657
17304 17304 1.000000 1.393657 46.0396 11.4256
17310.4 17310.4 1.000000 1.388341 45.9693 11.4688
17316.9 17316.9 1.000000 1.384845 45.8261 11.473
17323.5 17323.5 1.000000 1.381664 45.7927 11.5013
17330.1 17330.1 1.000000 1.380214 45.6925 11.4928
17336.8 17336.8 1.000000 1.380741 45.6332 11.4719
17343.6 17343.6 1.000000 1.381600 45.5317 11.4365
17350.5 17350.5 1.000000 1.381119 45.4476 11.4209
17357.4 17357.4 1.000000 1.379471 45.3332 11.4108
17364.4 17364.4 1.000000 1.376721 45.2898 11.4314
17371.5 17371.5 1.000000 1.373111 45.2019 11.4505
17378.7 17378.7 1.000000 1.369431 45.1241 11.4729
17385.9 17385.9 1.000000 1.366782 44.9702 11.464
17393.3 17393.2 1.000000 1.365317 44.9244 11.4692
17400.7 17400.6 1.000000 1.364257 44.8297 11.4572
17408.1 17408.1 1.000000 1.363832 44.6467 11.4152
17415.7 17415.7 1.000000 1.362945 44.6231 11.4193
17423.3 17423.3 1.000000 1.361123 44.529 11.416
17431 17431 1.000000 1.359527 44.4249 11.4075
17438.8 17438.8 1.000000 1.357794 44.2821 11.3906
17446.6 17446.6 1.000000 1.354991 44.2893 11.4244
17454.6 17454.5 1.000000 1.351909 44.1269 11.4176
17462.6 17462.5 1.000000 1.349279 44.0495 11.4277
17470.6 17470.6 1.000000 1.347516 43.9515 11.4223
17478.8 17478.8 1.000000 1.346465 43.7938 11.3933
17487 17487 1.000000 1.345168 43.6929 11.3818
17495.4 17495.3 1.000000 1.343191 43.6238 11.3863
17503.8 17503.7 1.000000 1.341103 43.5188 11.3827
17512.2 17512.2 1.000000 1.338845 43.3806 11.3722
17520.8 17520.7 1.000000 1.336908 43.3514 11.3865
17529.4 17529.3 1.000000 1.334411 43.2339 11.3841
17538.1 17538 1.000000 1.331851 43.1284 11.3854
17546.8 17546.8 1.000000 1.329513 43.0105 11.3808
17555.6 17555.6 1.000000 1.327424 42.895 11.3741
17564.6 17564.6 1.000000 1.325679 42.7581 11.3575
17573.6 17573.6 1.000000 1.323591 42.646 11.3514
17582.6 17582.6 1.000000 1.321449 42.5188 11.3418
17591.8 17591.8 1.000000 1.319201 42.3893 11.3327
17601 17601 1.000000 1.316785 42.279 11.3306
17610.4 17610.3 1.000000 1.314523 42.1532 11.3225
17619.7 17619.7 1.000000 1.312107 42.0244 11.3151
17629.2 17629.1 1.000000 1.309807 41.9155 11.3119
17638.7 17638.7 1.000000 1.307400 41.7969 11.307
17648.3 17648.3 1.000000 1.305050 41.6888 11.3043
17658 17658 1.000000 1.302781 41.5515 11.2927
17667.7 17667.7 1.000000 1.300706 41.4387 11.2854
17677.6 17677.5 1.000000 1.298381 41.3069 11.2758
17687.5 17687.5 1.000000 1.296021 41.1713 11.2653
17697.5 17697.4 1.000000 1.293543 41.0556 11.2614
17707.5 17707.5 1.000000 1.291274 40.9134 11.2479
17717.7 17717.6 1.000000 1.288744 40.7994 11.245
17727.9 17727.9 1.000000 1.286427 40.6735 11.2363
17738.2 17738.2 1.000000 1.283994 40.5304 11.2241
17748.5 17748.5 1.000000 1.281530 40.4112 11.2186
17759 17759 1.000000 1.279256 40.3491 11.2269
17769.5 17769.5 1.000000 1.276898 40.2362 11.222
17780.1 17780.1 1.000000 1.274519 40.0821 11.2055
17790.8 17790.8 1.000000 1.272157 39.9645 11.1992
17801.6 17801.5 1.000000 1.269496 39.8286 11.1908
17812.3 17812.3 1.000000 1.267005 39.6819 11.1773
17823.3 17823.2 1.000000 1.264659 39.5603 11.1693
17834.2 17834.2 1.000000 1.262319 39.4301 11.1586
17845.4 17845.3 1.000000 1.259698 39.2704 11.1426
17856.4 17856.4 1.000000 1.257269 39.1571 11.1374
17867.7 17867.6 1.000000 1.254909 38.9876 11.1155
17878.9 17878.9 1.000000 1.252350 38.917 11.1238
17890.3 17890.2 1.000000 1.249969 38.785 11.1124
17901.7 17901.7 1.000000 1.247263 38.6345 11.0993
17913.3 17913.2 1.000000 1.244921 38.5104 11.0896
17924.8 17924.8 1.000000 1.242461 38.3375 11.067
17936.5 17936.4 1.000000 1.240136 38.1977 11.0523
17948.2 17948.2 1.000000 1.237290 38.0672 11.046
17960 17960 1.000000 1.234897 37.9179 11.029
17971.9 17971.9 1.000000 1.232365 37.7672 11.013
17983.9 17983.8 1.000000 1.229942 37.666 11.0101
17996 17995.9 1.000000 1.227496 37.5314 10.9977
18008.1 18008 1.000000 1.224835 37.3868 10.9845