Folder: webxdiviewer/xdidata/Data/Yb

Note: xdidata/README.md
# bmm-standards
A pretty webpage for BMM's collection of common XAFS materials

[BMM's common materials collection](./BMM-standards.html)

Plotting of the data will happen soon.

Periodic table adapted from [some guy named Daniel](https://codepen.io/gooseofmusic/pen/PjKdNQ)

[This](https://www.coderstool.com/scss-to-css) is a helpful tool for
dealing with Sassy CSS.

File: Yb-L1-YtterbiumOxide.xdi
# XDI/1.0 BlueSky/1.10.0 BMM/2023-1.0-py310-tiled
# Beamline.name: BMM (06BM) -- Beamline for Materials Measurement (NIST)
# Beamline.xray_source: NSLS-II three-pole wiggler
# Beamline.collimation: paraboloid mirror, 5 nm Rh on 30 nm Pt
# Beamline.focusing: not in use
# Beamline.harmonic_rejection: flat mirror, Pt stripe, pitch = 7.0 mrad relative to beam
# Beamline.software: Bluesky 1.10.0, Ophyd 1.7.0, DataBroker 2.0.0b13, Python 3.10.8, 2023-1.0-py310-tiled
# Detector.I0: 10 cm N2
# Detector.I1: 25 cm N2
# Detector.I2: 25 cm N2
# Element.symbol: Yb
# Element.edge: L1
# Element.reference: Yb
# Element.reference_material: Yb2O3
# Facility.name: NSLS-II
# Facility.energy: 3.0
# Facility.current: 400.4
# Facility.mode: top-off
# Facility.GUP: 301027
# Facility.SAF: 310583
# Facility.cycle: 2023-2
# Mono.name: Si(111)
# Mono.d_spacing: 3.13519
# Mono.encoder_resolution: 0.0000050 deg/ct
# Mono.angle_offset: 16.0754 deg
# Mono.scan_mode: pseudo channel cut
# Mono.scan_type: step
# Mono.direction: forward in energy
# Sample.name: Yb2O3
# Sample.prep: PEG pellet
# Sample.x: 109.138 mm
# Sample.y: 153.150 mm
# Sample.SDD_position: 205.000 mm
# Scan.experimenters: Bruce Ravel
# Scan.edge_energy: 10486.4
# Scan.start_time: 2023-05-28T18:03:52
# Scan.end_time: 2023-05-28T18:12:03
# Scan.transient_id: 78896
# Scan.uid: 62291971-9033-411c-9faa-ce55508e6a2a
# Scan.plot_hint: ln(It/Ir)  --  ln($6/$7)
# Column.1: energy eV
# Column.2: requested_energy eV
# Column.3: measurement_time seconds
# Column.4: xmu
# Column.5: I0 nA
# Column.6: It nA
# Column.7: Ir nA
# ///////////
# sample courtesy Martin Stennett, University of Sheffield
# -----------
# energy  requested_energy  measurement_time  xmu  I0  It  Ir
  10286.342  10286.400  0.500  1.454984  90.3955  141.325  32.9858
  10316.476  10316.400  0.500  1.445825  89.9121  140.828  33.1722
  10346.470  10346.400  0.500  1.435560  89.4079  140.323  33.3944
  10376.428  10376.400  0.500  1.426034  88.8009  139.642  33.5504
  10406.432  10406.400  0.500  1.415858  88.2884  139.094  33.7605
  10436.438  10436.400  0.500  1.405404  87.7807  138.542  33.98
  10458.381  10458.400  0.500  1.400651  87.4511  138.223  34.0631
  10464.367  10464.400  0.500  1.399471  87.3204  138.067  34.065
  10470.378  10470.400  0.500  1.398199  87.2258  137.964  34.0828
  10476.387  10476.400  0.500  1.397315  87.1067  137.825  34.0785
  10477.263  10477.300  0.500  1.397238  87.1047  137.817  34.0791
  10478.162  10478.200  0.500  1.397157  87.1339  137.878  34.0971
  10479.066  10479.100  0.500  1.397193  87.0942  137.811  34.0792
  10479.975  10480.000  0.500  1.397256  87.0281  137.736  34.0586
  10480.870  10480.900  0.500  1.397308  87.0024  137.696  34.0469
  10481.775  10481.800  0.500  1.397499  86.9924  137.676  34.0354
  10482.666  10482.700  0.500  1.397552  86.972  137.656  34.0287
  10483.571  10483.600  0.500  1.397853  86.952  137.634  34.0131
  10484.490  10484.500  0.500  1.398210  86.9197  137.609  33.9947
  10485.400  10485.400  0.500  1.398662  86.9014  137.562  33.9678
  10486.286  10486.300  0.500  1.399480  86.8949  137.562  33.94
  10487.197  10487.200  0.500  1.400533  86.8868  137.568  33.9059
  10488.093  10488.100  0.500  1.402035  86.8589  137.529  33.8453
  10488.980  10489.000  0.500  1.404096  86.8353  137.491  33.7662
  10489.886  10489.900  0.500  1.407103  86.8329  137.504  33.6681
  10490.792  10490.800  0.500  1.410939  86.825  137.473  33.5316
  10491.704  10491.700  0.500  1.415582  87.0933  137.924  33.4857
  10492.601  10492.600  0.500  1.420466  87.0538  137.865  33.3083
  10493.493  10493.500  0.500  1.424765  87.0423  137.855  33.163
  10494.390  10494.400  0.500  1.429073  86.9904  137.79  33.0049
  10495.288  10495.300  0.500  1.433487  86.9885  137.794  32.8606
  10496.200  10496.200  0.500  1.438132  86.982  137.786  32.7065
  10497.102  10497.100  0.500  1.443220  86.9773  137.792  32.5417
  10498.005  10498.000  0.500  1.448587  86.9173  137.707  32.3476
  10498.903  10498.900  0.500  1.454044  86.9448  137.751  32.182
  10499.797  10499.800  0.500  1.459939  86.8838  137.658  31.9712
  10500.686  10500.700  0.500  1.466718  86.8585  137.644  31.752
  10501.599  10501.600  0.500  1.474913  86.8663  137.657  31.4957
  10502.502  10502.500  0.500  1.483784  86.7951  137.541  31.1912
  10503.396  10503.400  0.500  1.491782  86.781  137.513  30.9364
  10504.295  10504.300  0.500  1.497697  86.7957  137.557  30.7639
  10505.185  10505.200  0.500  1.500533  86.7635  137.515  30.6675
  10506.094  10506.100  0.500  1.500475  86.7504  137.511  30.6684
  10507.003  10507.000  0.500  1.498574  86.7356  137.476  30.7187
  10507.908  10507.900  0.500  1.496111  86.6981  137.439  30.7864
  10508.803  10508.800  0.500  1.494095  86.6766  137.411  30.8422
  10509.688  10509.700  0.500  1.493164  86.666  137.375  30.8627
  10510.593  10510.600  0.500  1.493264  86.6519  137.384  30.8616
  10511.383  10511.400  0.500  1.493729  86.5599  137.24  30.815
  10514.545  10514.410  0.500  1.494163  86.5411  137.233  30.8001
  10517.575  10517.600  0.500  1.489204  86.4759  137.146  30.9336
  10520.952  10520.960  0.500  1.479156  86.4602  137.169  31.2512
  10524.484  10524.480  0.500  1.469131  86.3169  136.976  31.5216
  10528.183  10528.180  0.500  1.461432  86.2504  136.912  31.7503
  10532.062  10532.050  0.500  1.458478  86.2272  136.897  31.8408
  10536.103  10536.100  0.500  1.458491  86.1582  136.8  31.8179
  10540.301  10540.310  0.500  1.459911  85.9889  136.565  31.7183
  10544.700  10544.690  0.500  1.461424  85.9972  136.606  31.6798
  10549.257  10549.250  0.500  1.463794  85.9223  136.538  31.589
  10553.977  10553.980  0.500  1.466666  85.8079  136.394  31.4653
  10558.866  10558.880  0.500  1.469717  85.5788  136.076  31.2961
  10563.954  10563.950  0.500  1.469442  85.6474  136.221  31.3381
  10569.181  10569.190  0.500  1.465362  85.5412  136.078  31.4333
  10574.613  10574.610  0.500  1.458013  85.4568  136.004  31.648
  10580.192  10580.190  0.500  1.452933  85.3509  135.873  31.7785
  10585.966  10585.950  0.500  1.450924  85.0683  135.466  31.747
  10591.892  10591.880  0.500  1.449867  85.1368  135.617  31.816
  10597.971  10597.980  0.500  1.447133  85.0019  135.461  31.8665
  10604.237  10604.250  0.500  1.443886  84.9263  135.411  31.9582
  10610.702  10610.690  0.500  1.441069  84.7553  135.158  31.9885
  10617.306  10617.300  0.500  1.439481  84.6869  135.11  32.0279
  10624.095  10624.090  0.500  1.439698  84.8053  135.361  32.0804
  10631.055  10631.050  0.500  1.440649  84.6999  135.246  32.0228
  10638.161  10638.170  0.500  1.438961  84.5728  135.094  32.0407
  10645.464  10645.470  0.500  1.436052  84.5087  135.034  32.1199
  10652.954  10652.950  0.500  1.432632  84.3654  134.875  32.1918
  10660.588  10660.590  0.500  1.427140  84.1692  134.612  32.3062
  10668.411  10668.400  0.500  1.422166  84.0977  134.557  32.4539
  10676.399  10676.390  0.500  1.420431  83.918  134.344  32.4589
  10684.572  10684.550  0.500  1.418906  83.8172  134.23  32.4808
  10692.867  10692.870  0.500  1.416256  83.663  134.039  32.5206
  10701.374  10701.370  0.500  1.413146  83.5122  133.862  32.5789
  10710.054  10710.050  0.500  1.409659  83.3911  133.739  32.6626
  10718.898  10718.890  0.500  1.407027  83.215  133.525  32.6963
  10727.916  10727.900  0.500  1.405669  83.0628  133.331  32.693
  10737.120  10737.090  0.500  1.403639  82.9001  133.141  32.713
  10746.465  10746.450  0.500  1.400345  82.7467  132.971  32.7788
  10755.992  10755.970  0.500  1.396576  82.555  132.732  32.8435
  10765.683  10765.670  0.500  1.392428  82.3803  132.518  32.927
  10775.587  10775.550  0.500  1.388483  82.1987  132.29  33.0001
  10785.616  10785.590  0.500  1.384716  81.7536  131.653  32.9652
  10795.811  10795.800  0.500  1.382041  81.8552  131.883  33.1112
  10806.208  10806.190  0.500  1.379333  81.6136  131.571  33.1225
  10816.777  10816.750  0.500  1.375957  81.5214  131.49  33.2141
  10827.490  10827.480  0.500  1.372529  81.259  131.15  33.242
  10838.403  10838.380  0.500  1.369376  81.1171  131.001  33.309
  10849.476  10849.450  0.500  1.365818  80.887  130.693  33.3492
  10860.715  10860.690  0.500  1.361976  80.4349  130.052  33.3132
  10872.142  10872.110  0.500  1.358472  80.5205  130.267  33.4855
  10883.707  10883.690  0.500  1.354832  80.2982  129.973  33.5319
  10895.498  10895.450  0.500  1.350659  80.0893  129.718  33.6059
  10907.408  10907.380  0.500  1.346645  79.8774  129.46  33.6741
  10919.525  10919.480  0.500  1.342838  79.6833  129.221  33.7402
  10931.774  10931.750  0.500  1.339054  79.4626  128.949  33.7968
  10944.217  10944.190  0.500  1.335414  79.2496  128.685  33.8506
  10956.845  10956.810  0.500  1.332116  79.0344  128.41  33.8898
  10969.623  10969.590  0.500  1.328316  78.807  128.119  33.9416
  10982.583  10982.550  0.500  1.323827  78.5726  127.817  34.014
  10995.726  10995.680  0.500  1.319466  78.3469  127.536  34.0877
  11009.007  11008.980  0.500  1.315305  78.1137  127.252  34.1534
  11022.489  11022.450  0.500  1.311281  77.878  126.963  34.2134
  11036.127  11036.100  0.500  1.307576  77.642  126.66  34.2583
  11049.936  11049.910  0.500  1.303869  77.3853  126.306  34.2895
  11063.930  11063.900  0.500  1.299342  77.1499  126.027  34.369
  11078.077  11078.060  0.500  1.294621  76.8902  125.67  34.4339
  11092.421  11092.390  0.500  1.290237  76.6392  125.347  34.4962
  11106.942  11106.890  0.500  1.286352  76.3156  124.909  34.5095
  11121.588  11121.560  0.500  1.282203  76.1522  124.718  34.6001
  11136.445  11136.400  0.500  1.278045  75.8938  124.416  34.6601
  11151.457  11151.420  0.500  1.273450  75.6278  124.059  34.7196
  11166.634  11166.600  0.500  1.268738  75.3496  123.687  34.7791
  11181.994  11181.960  0.500  1.264078  75.0761  123.323  34.8387
  11197.539  11197.490  0.500  1.259885  74.8027  122.963  34.8828
  11213.221  11213.190  0.500  1.255672  74.4942  122.537  34.9088
  11229.073  11229.060  0.500  1.251471  74.1946  122.142  34.9427
  11245.120  11245.110  0.500  1.246838  74.018  121.939  35.0468
  11261.329  11261.320  0.500  1.241795  73.8686  121.789  35.1806
  11277.734  11277.710  0.500  1.237115  73.5765  121.378  35.2265
  11294.310  11294.270  0.500  1.232575  73.2332  120.894  35.2455
  11311.014  11311.000  0.500  1.228077  72.962  120.552  35.3042
  11327.935  11327.900  0.500  1.223761  72.5746  119.998  35.294
  11339.300  11339.260  0.500  1.220590  71.3326  118.001  34.817

File: Yb-L3-YtterbiumOxide.xdi
# XDI/1.0 BlueSky/1.10.0 BMM/2023-1.0-py310-tiled
# Beamline.name: BMM (06BM) -- Beamline for Materials Measurement (NIST)
# Beamline.xray_source: NSLS-II three-pole wiggler
# Beamline.collimation: paraboloid mirror, 5 nm Rh on 30 nm Pt
# Beamline.focusing: not in use
# Beamline.harmonic_rejection: flat mirror, Pt stripe, pitch = 7.0 mrad relative to beam
# Beamline.software: Bluesky 1.10.0, Ophyd 1.7.0, DataBroker 2.0.0b13, Python 3.10.8, 2023-1.0-py310-tiled
# Detector.I0: 10 cm N2
# Detector.I1: 25 cm N2
# Detector.I2: 25 cm N2
# Element.symbol: Yb
# Element.edge: L3
# Element.reference: Yb
# Element.reference_material: Yb2O3
# Facility.name: NSLS-II
# Facility.energy: 3.0
# Facility.current: 398.8
# Facility.mode: top-off
# Facility.GUP: 301027
# Facility.SAF: 310583
# Facility.cycle: 2023-2
# Mono.name: Si(111)
# Mono.d_spacing: 3.13519
# Mono.encoder_resolution: 0.0000050 deg/ct
# Mono.angle_offset: 16.0754 deg
# Mono.scan_mode: pseudo channel cut
# Mono.scan_type: step
# Mono.direction: forward in energy
# Sample.name: Yb2O3
# Sample.prep: PEG pellet
# Sample.x: 109.138 mm
# Sample.y: 153.150 mm
# Sample.SDD_position: 205.000 mm
# Scan.experimenters: Bruce Ravel
# Scan.edge_energy: 8943.6
# Scan.start_time: 2023-05-28T15:49:33
# Scan.end_time: 2023-05-28T15:57:37
# Scan.transient_id: 78812
# Scan.uid: 2be40b9f-a1fb-42f0-8736-52bc1fdddaac
# Scan.plot_hint: ln(It/Ir)  --  ln($6/$7)
# Column.1: energy eV
# Column.2: requested_energy eV
# Column.3: measurement_time seconds
# Column.4: xmu
# Column.5: I0 nA
# Column.6: It nA
# Column.7: Ir nA
# ///////////
# sample courtesy Martin Stennett, University of Sheffield
# -----------
# energy  requested_energy  measurement_time  xmu  I0  It  Ir
  8743.613  8743.600  0.500  1.441573  123.716  167.823  39.6994
  8773.647  8773.600  0.500  1.427603  123.598  168.267  40.3646
  8803.627  8803.600  0.500  1.413599  123.023  168.118  40.8974
  8833.620  8833.600  0.500  1.399935  122.448  167.98  41.4261
  8863.618  8863.600  0.500  1.386842  121.886  167.757  41.9164
  8893.617  8893.600  0.500  1.375085  121.307  167.598  42.3717
  8915.567  8915.600  0.500  1.370849  120.819  167.317  42.4804
  8921.571  8921.600  0.500  1.372478  120.76  167.356  42.4211
  8927.652  8927.600  0.500  1.377932  120.704  167.418  42.2059
  8933.584  8933.600  0.500  1.394858  120.586  167.369  41.4854
  8934.474  8934.500  0.500  1.400279  120.546  167.341  41.2542
  8935.381  8935.400  0.500  1.407127  120.491  167.293  40.9611
  8936.278  8936.300  0.500  1.415426  120.203  166.898  40.5265
  8937.178  8937.200  0.500  1.424018  120.209  166.912  40.1833
  8938.086  8938.100  0.500  1.432434  120.385  167.15  39.9031
  8938.977  8939.000  0.500  1.442421  120.37  167.202  39.519
  8939.888  8939.900  0.500  1.457088  120.345  167.144  38.93
  8940.783  8940.800  0.500  1.477846  120.332  167.157  38.1332
  8941.694  8941.700  0.500  1.508075  120.3  167.138  36.9936
  8942.586  8942.600  0.500  1.548940  120.28  167.129  35.5104
  8943.501  8943.500  0.500  1.610887  120.255  167.09  33.3696
  8944.390  8944.400  0.500  1.701608  120.221  167.081  30.474
  8945.292  8945.300  0.500  1.832612  120.205  167.082  26.7323
  8946.191  8946.200  0.500  2.005799  120.183  167.048  22.4768
  8947.097  8947.100  0.500  2.208639  120.148  167.023  18.3475
  8947.990  8948.000  0.500  2.372120  120.125  166.99  15.5773
  8948.896  8948.900  0.500  2.460434  120.1  167  14.2614
  8949.799  8949.800  0.500  2.503105  120.073  166.973  13.6635
  8950.703  8950.700  0.500  2.510701  120.045  166.955  13.5586
  8951.603  8951.600  0.500  2.455697  119.994  166.863  14.3174
  8952.489  8952.500  0.500  2.339358  119.717  166.504  16.0493
  8953.393  8953.400  0.500  2.195315  119.79  166.63  18.5498
  8954.294  8954.300  0.500  2.063113  119.935  166.84  21.1983
  8955.209  8955.200  0.500  1.960378  119.909  166.837  23.4915
  8956.103  8956.100  0.500  1.894116  119.896  166.856  25.1037
  8957.008  8957.000  0.500  1.847950  119.867  166.827  26.2852
  8957.899  8957.900  0.500  1.814834  119.853  166.834  27.1714
  8958.804  8958.800  0.500  1.790067  119.831  166.781  27.8438
  8959.688  8959.700  0.500  1.772688  119.812  166.802  28.3357
  8960.601  8960.600  0.500  1.759841  119.789  166.776  28.6975
  8961.496  8961.500  0.500  1.750988  119.77  166.788  28.9548
  8962.412  8962.400  0.500  1.745222  119.743  166.776  29.1202
  8963.301  8963.300  0.500  1.743581  119.721  166.736  29.1609
  8964.207  8964.200  0.500  1.745990  119.69  166.714  29.0869
  8965.096  8965.100  0.500  1.750782  120.024  167.212  29.0344
  8965.999  8966.000  0.500  1.755605  119.807  166.909  28.8423
  8966.896  8966.900  0.500  1.758343  119.977  167.183  28.8106
  8967.796  8967.800  0.500  1.758908  120.047  167.276  28.8104
  8968.602  8968.600  0.500  1.757551  120.024  167.282  28.8507
  8971.630  8971.610  0.500  1.741920  119.971  167.247  29.299
  8974.801  8974.800  0.500  1.741333  119.901  167.197  29.3073
  8978.177  8978.160  0.500  1.770730  119.822  167.17  28.4537
  8981.690  8981.680  0.500  1.808253  119.699  167.045  27.3855
  8985.376  8985.380  0.500  1.849169  119.616  167.007  26.2816
  8989.257  8989.250  0.500  1.848919  119.528  166.97  26.2822
  8993.312  8993.300  0.500  1.814589  119.235  166.621  27.1433
  8997.517  8997.510  0.500  1.786234  119.367  166.887  27.9687
  9001.894  9001.890  0.500  1.769343  119.113  166.624  28.4002
  9006.460  9006.450  0.500  1.756028  119.193  166.814  28.8137
  9011.198  9011.180  0.500  1.748948  117.012  163.858  28.5043
  9016.089  9016.080  0.500  1.746118  119.014  166.747  29.0889
  9021.164  9021.150  0.500  1.750369  116.512  163.319  28.3701
  9026.395  9026.390  0.500  1.760974  118.848  166.684  28.6492
  9031.816  9031.810  0.500  1.770802  118.726  166.645  28.3624
  9037.394  9037.390  0.500  1.773572  118.604  166.54  28.2661
  9043.170  9043.150  0.500  1.771122  117.936  165.726  28.197
  9049.080  9049.080  0.500  1.769476  118.323  166.379  28.3547
  9055.185  9055.180  0.500  1.764932  118.2  166.307  28.4715
  9061.458  9061.450  0.500  1.760465  118.073  166.246  28.5885
  9067.903  9067.890  0.500  1.756089  117.923  166.175  28.7015
  9074.510  9074.500  0.500  1.744988  117.816  166.106  29.0099
  9081.300  9081.290  0.500  1.731681  116.94  165.011  29.2048
  9088.258  9088.250  0.500  1.727261  117.501  165.916  29.495
  9095.394  9095.370  0.500  1.732208  117.365  165.849  29.3376
  9102.698  9102.670  0.500  1.734670  117.202  165.769  29.2513
  9110.165  9110.150  0.500  1.739942  117.026  165.663  29.0789
  9117.802  9117.790  0.500  1.742218  116.874  165.574  28.9972
  9125.620  9125.600  0.500  1.731237  116.699  165.473  29.2996
  9133.604  9133.590  0.500  1.719991  116.507  165.345  29.608
  9141.764  9141.750  0.500  1.715817  116.206  165.043  29.6775
  9150.083  9150.070  0.500  1.715571  116.201  165.168  29.7073
  9158.591  9158.570  0.500  1.715052  113.13  160.954  28.9644
  9167.270  9167.250  0.500  1.710900  115.504  164.479  29.7218
  9176.105  9176.090  0.500  1.701288  115.684  164.9  30.0857
  9185.125  9185.100  0.500  1.695038  115.59  164.93  30.2799
  9194.315  9194.290  0.500  1.693779  115.271  164.643  30.2653
  9203.671  9203.650  0.500  1.693166  114.995  164.378  30.235
  9213.203  9213.170  0.500  1.691704  114.783  164.251  30.256
  9222.895  9222.870  0.500  1.687513  114.553  164.068  30.3491
  9232.770  9232.750  0.500  1.681924  114.327  163.918  30.4913
  9242.814  9242.790  0.500  1.674545  114.1  163.76  30.6876
  9253.031  9253.000  0.500  1.667927  113.881  163.594  30.86
  9263.397  9263.390  0.500  1.664552  113.64  163.421  30.9315
  9273.969  9273.950  0.500  1.661283  113.4  163.249  31.0003
  9284.711  9284.680  0.500  1.655297  113.186  163.118  31.1613
  9295.615  9295.580  0.500  1.649721  112.923  162.915  31.2965
  9306.666  9306.650  0.500  1.645240  112.154  162.011  31.2627
  9317.897  9317.890  0.500  1.640443  112.469  162.598  31.5268
  9329.325  9329.310  0.500  1.635308  112.212  162.427  31.6558
  9340.906  9340.890  0.500  1.631383  112.335  162.776  31.8485
  9352.675  9352.650  0.500  1.626720  112.071  162.576  31.9581
  9364.595  9364.580  0.500  1.620935  111.797  162.394  32.1075
  9376.702  9376.680  0.500  1.614475  111.528  162.186  32.2742
  9388.970  9388.950  0.500  1.607954  111.239  161.934  32.435
  9401.412  9401.390  0.500  1.601078  110.965  161.723  32.6162
  9414.026  9414.010  0.500  1.596619  110.65  161.477  32.712
  9426.804  9426.790  0.500  1.593169  110.36  161.25  32.7789
  9439.765  9439.750  0.500  1.587514  110.02  160.958  32.9051
  9452.896  9452.880  0.500  1.580844  109.714  160.708  33.0738
  9466.189  9466.180  0.500  1.574211  109.406  160.421  33.2345
  9479.664  9479.650  0.500  1.567622  109.094  160.18  33.4041
  9493.315  9493.300  0.500  1.561486  108.785  159.896  33.5501
  9507.122  9507.110  0.500  1.557461  108.44  159.621  33.6274
  9521.120  9521.100  0.500  1.552667  108.104  159.331  33.7275
  9535.285  9535.260  0.500  1.545041  107.776  159.039  33.9236
  9549.615  9549.590  0.500  1.536572  107.421  158.736  34.1468
  9564.109  9564.090  0.500  1.529962  107.096  158.447  34.3108
  9578.789  9578.760  0.500  1.524442  106.744  158.099  34.4248
  9593.616  9593.600  0.500  1.519878  106.393  157.814  34.52
  9608.640  9608.620  0.500  1.514354  106.029  157.477  34.6372
  9623.826  9623.800  0.500  1.507431  105.675  157.163  34.8081
  9639.180  9639.160  0.500  1.499181  105.306  156.792  35.0137
  9654.718  9654.690  0.500  1.492034  104.931  156.428  35.183
  9670.420  9670.390  0.500  1.485825  104.514  156.007  35.3068
  9686.283  9686.260  0.500  1.480239  104.164  155.725  35.4404
  9702.347  9702.310  0.500  1.474585  103.757  155.317  35.548
  9718.550  9718.520  0.500  1.467196  103.382  154.956  35.7284
  9734.940  9734.910  0.500  1.459452  102.971  154.565  35.9152
  9751.494  9751.470  0.500  1.452025  102.584  154.171  36.0908
  9768.220  9768.200  0.500  1.445348  102.133  153.724  36.2272
  9785.130  9785.100  0.500  1.439401  100.937  152.127  36.0647
  9796.496  9796.460  0.500  1.435126  101.501  153.103  36.4517