Folder: webxdiviewer/xdidata/Data/Zr

Note: xdidata/README.md
# bmm-standards
A pretty webpage for BMM's collection of common XAFS materials

[BMM's common materials collection](./BMM-standards.html)

Plotting of the data will happen soon.

Periodic table adapted from [some guy named Daniel](https://codepen.io/gooseofmusic/pen/PjKdNQ)

[This](https://www.coderstool.com/scss-to-css) is a helpful tool for
dealing with Sassy CSS.

File: Zr-K-LithiumZirconate.xdi
# XDI/1.0 BlueSky/1.10.0 BMM/2023-1.0-py310-tiled
# Beamline.name: BMM (06BM) -- Beamline for Materials Measurement (NIST)
# Beamline.xray_source: NSLS-II three-pole wiggler
# Beamline.collimation: paraboloid mirror, 5 nm Rh on 30 nm Pt
# Beamline.focusing: not in use
# Beamline.harmonic_rejection: flat mirror, Pt stripe, pitch = 7.0 mrad relative to beam
# Beamline.software: Bluesky 1.10.0, Ophyd 1.7.0, DataBroker 2.0.0b13, Python 3.10.8, 2023-1.0-py310-tiled
# Detector.I0: 10 cm N2
# Detector.I1: 25 cm N2
# Detector.I2: 25 cm N2
# Element.symbol: Zr
# Element.edge: K
# Element.reference: Zr
# Element.reference_material: Zr foil
# Facility.name: NSLS-II
# Facility.energy: 3.0
# Facility.current: 400.7
# Facility.mode: top-off
# Facility.GUP: 301027
# Facility.SAF: 310583
# Facility.cycle: 2023-2
# Mono.name: Si(111)
# Mono.d_spacing: 3.13519
# Mono.encoder_resolution: 0.0000050 deg/ct
# Mono.angle_offset: 16.0754 deg
# Mono.scan_mode: pseudo channel cut
# Mono.scan_type: step
# Mono.direction: forward in energy
# Sample.name: Li2ZrO3
# Sample.prep: powder in BN pellet
# Sample.x: 117.785 mm
# Sample.y: 114.695 mm
# Sample.SDD_position: 205.000 mm
# Scan.experimenters: Bruce Ravel
# Scan.edge_energy: 17997.6
# Scan.start_time: 2023-06-23T19:56:48
# Scan.end_time: 2023-06-23T20:04:44
# Scan.transient_id: 84989
# Scan.uid: ef646e9b-705e-44d3-a3f7-bd6585b6fa45
# Scan.plot_hint: ln(I0/It)  --  ln($5/$6)
# Column.1: energy eV
# Column.2: requested_energy eV
# Column.3: measurement_time seconds
# Column.4: xmu
# Column.5: I0 nA
# Column.6: It nA
# Column.7: Ir nA
# ///////////
# BMM standards collection
# -----------
# energy  requested_energy  measurement_time  xmu  I0  It  Ir
  17797.442  17797.600  0.500  0.553422  13.4673  7.743433  5.831738
  17827.696  17827.600  0.500  0.548946  13.3301  7.698897  5.805433
  17857.733  17857.600  0.500  0.545890  13.2149  7.655738  5.778128
  17887.689  17887.600  0.500  0.543711  13.0754  7.591453  5.730570
  17917.719  17917.600  0.500  0.545116  12.9714  7.520502  5.676860
  17947.723  17947.600  0.500  0.554985  12.8532  7.378757  5.555537
  17969.467  17969.600  0.500  0.578706  12.6953  7.117276  5.325305
  17975.517  17975.600  0.500  0.592824  12.7426  7.043625  5.249502
  17981.501  17981.600  0.500  0.612204  12.7066  6.888940  5.099415
  17987.516  17987.600  0.500  0.646232  12.6964  6.653124  4.860492
  17988.397  17988.500  0.500  0.653077  12.6866  6.602621  4.809022
  17989.319  17989.400  0.500  0.660676  12.6816  6.550065  4.751374
  17990.185  17990.300  0.500  0.668546  12.6743  6.494957  4.692876
  17991.094  17991.200  0.500  0.677602  12.6531  6.425640  4.622092
  17992.003  17992.100  0.500  0.687988  12.6711  6.368306  4.551165
  17992.940  17993.000  0.500  0.700200  12.6635  6.287249  4.459794
  17993.863  17993.900  0.500  0.714439  12.6521  6.192775  4.351418
  17994.758  17994.800  0.500  0.730261  12.6556  6.097236  4.227857
  17995.667  17995.700  0.500  0.749105  12.6496  5.980602  4.071198
  17996.562  17996.600  0.500  0.771459  12.6484  5.847826  3.879856
  17997.457  17997.500  0.500  0.799312  12.644  5.685218  3.634210
  17998.381  17998.400  0.500  0.835894  12.6387  5.478727  3.316960
  17999.276  17999.300  0.500  0.883506  12.6318  5.221138  2.956145
  18000.186  18000.200  0.500  0.950913  12.6304  4.880226  2.555372
  18001.081  18001.100  0.500  1.038976  12.6203  4.465290  2.183582
  18001.963  18002.000  0.500  1.147352  12.6132  4.004392  1.866030
  18002.844  18002.900  0.500  1.271266  12.6134  3.537750  1.603158
  18003.740  18003.800  0.500  1.404111  12.6189  3.099023  1.379257
  18004.678  18004.700  0.500  1.542665  12.6096  2.696065  1.171615
  18005.574  18005.600  0.500  1.677946  12.6213  2.357111  0.990329
  18006.484  18006.500  0.500  1.816481  12.6134  2.050903  0.823762
  18007.395  18007.400  0.500  1.965964  12.6126  1.766020  0.670145
  18008.277  18008.300  0.500  2.125511  12.6122  1.505543  0.535576
  18009.201  18009.200  0.500  2.309662  12.5959  1.250707  0.412580
  18010.098  18010.100  0.500  2.513103  12.5994  1.020756  0.311293
  18011.023  18011.000  0.500  2.752746  12.5937  0.802881  0.226366
  18011.877  18011.900  0.500  3.015814  12.5806  0.616524  0.162365
  18012.773  18012.800  0.500  3.316074  12.5696  0.456213  0.112932
  18013.670  18013.700  0.500  3.677919  12.5635  0.317548  0.074738
  18014.567  18014.600  0.500  4.068148  12.5457  0.214646  0.048406
  18015.478  18015.500  0.500  4.495503  12.5346  0.139874  0.030430
  18016.361  18016.400  0.500  4.899881  12.5204  0.093245  0.019671
  18017.258  18017.300  0.500  5.282949  12.5086  0.063511  0.012951
  18018.084  18018.200  0.500  5.583812  12.4799  0.046902  0.009217
  18018.924  18019.100  0.500  5.870511  12.4883  0.035235  0.006627
  18019.864  18020.000  0.500  6.114742  12.4746  0.027569  0.004950
  18020.776  18020.900  0.500  6.293095  12.4712  0.023060  0.003907
  18021.730  18021.800  0.500  6.408509  12.4624  0.020532  0.003326
  18022.514  18022.600  0.500  6.462947  12.462  0.019443  0.003049
  18025.578  18025.610  0.500  6.421024  12.4451  0.020248  0.003131
  18028.800  18028.800  0.500  6.224706  12.4215  0.024593  0.004046
  18032.137  18032.160  0.500  6.014150  12.4114  0.030332  0.005212
  18035.690  18035.680  0.500  5.703149  12.395  0.041343  0.007896
  18039.358  18039.380  0.500  5.377273  12.3869  0.057233  0.012109
  18043.227  18043.250  0.500  5.181649  12.3011  0.069117  0.015328
  18047.241  18047.300  0.500  5.052588  12.3593  0.079010  0.017813
  18051.514  18051.510  0.500  4.920554  12.3455  0.090061  0.020800
  18055.904  18055.890  0.500  4.890854  12.3217  0.092598  0.020832
  18060.496  18060.450  0.500  4.920772  12.3024  0.089728  0.019547
  18065.176  18065.180  0.500  5.019725  12.2832  0.081147  0.017516
  18070.060  18070.080  0.500  5.210903  12.2768  0.066992  0.014662
  18075.146  18075.150  0.500  5.448501  12.2523  0.052718  0.011276
  18080.393  18080.390  0.500  5.588008  12.2092  0.045693  0.009678
  18085.859  18085.810  0.500  5.575775  12.198  0.046213  0.009762
  18091.428  18091.390  0.500  5.437865  12.1069  0.052650  0.011110
  18097.145  18097.150  0.500  5.307784  12.1728  0.060291  0.012876
  18103.081  18103.080  0.500  5.215578  12.143  0.065952  0.014504
  18109.222  18109.180  0.500  5.146165  12.0899  0.070383  0.016154
  18115.468  18115.450  0.500  5.131481  12.0836  0.071388  0.016411
  18121.935  18121.890  0.500  5.111018  11.9926  0.072315  0.016583
  18128.478  18128.500  0.500  5.065819  12.0395  0.075954  0.017194
  18135.300  18135.290  0.500  5.048286  11.9976  0.077028  0.017498
  18142.257  18142.250  0.500  5.084735  11.9951  0.074256  0.016852
  18149.393  18149.370  0.500  5.152292  11.9493  0.069140  0.015817
  18156.651  18156.670  0.500  5.221298  11.9436  0.064499  0.015098
  18164.175  18164.150  0.500  5.228000  11.9152  0.063916  0.015011
  18171.821  18171.790  0.500  5.169485  11.8857  0.067600  0.015987
  18179.604  18179.600  0.500  5.085506  11.8501  0.073302  0.017117
  18187.626  18187.590  0.500  5.044487  11.8115  0.076123  0.017783
  18195.756  18195.750  0.500  5.028316  11.7764  0.077133  0.018100
  18204.069  18204.070  0.500  5.039892  11.7582  0.076128  0.018070
  18212.578  18212.570  0.500  5.064474  11.7248  0.074068  0.017837
  18221.241  18221.250  0.500  5.058280  11.6449  0.074020  0.017922
  18230.116  18230.090  0.500  5.018418  11.6544  0.077094  0.018681
  18239.088  18239.100  0.500  5.006747  11.6237  0.077793  0.018705
  18248.332  18248.290  0.500  5.012846  11.5819  0.077042  0.018198
  18257.672  18257.650  0.500  5.026444  11.5451  0.075760  0.018002
  18267.213  18267.170  0.500  5.030177  11.5032  0.075204  0.017976
  18276.910  18276.870  0.500  5.037397  11.4523  0.074333  0.017994
  18286.765  18286.750  0.500  5.029378  11.1639  0.073044  0.017975
  18296.821  18296.790  0.500  4.995042  11.3923  0.077142  0.018925
  18307.020  18307.000  0.500  4.955387  11.3538  0.079991  0.019711
  18317.452  18317.390  0.500  4.929289  11.32  0.081862  0.020075
  18327.940  18327.950  0.500  4.945322  11.2792  0.080270  0.019638
  18338.735  18338.680  0.500  4.957938  11.2333  0.078941  0.019339
  18349.587  18349.580  0.500  4.939938  11.1805  0.079997  0.019928
  18360.704  18360.650  0.500  4.932763  11.1476  0.080336  0.020111
  18371.923  18371.890  0.500  4.917782  11.1106  0.081278  0.020449
  18383.348  18383.310  0.500  4.899289  11.0599  0.082417  0.020720
  18394.937  18394.890  0.500  4.884976  11.0261  0.083350  0.021031
  18406.689  18406.650  0.500  4.882385  10.9707  0.083146  0.020817
  18418.634  18418.580  0.500  4.894839  10.9572  0.082016  0.020716
  18430.714  18430.680  0.500  4.892448  10.9256  0.081975  0.020710
  18442.990  18442.950  0.500  4.867690  10.8692  0.083596  0.021368
  18455.401  18455.390  0.500  4.845741  10.8107  0.084992  0.021847
  18468.009  18468.010  0.500  4.827930  10.7849  0.086312  0.022150
  18480.829  18480.790  0.500  4.817301  10.6669  0.086280  0.022250
  18493.772  18493.750  0.500  4.825148  10.6933  0.085818  0.022167
  18506.929  18506.880  0.500  4.826915  10.6364  0.085210  0.021988
  18520.179  18520.180  0.500  4.812012  10.5881  0.086097  0.022364
  18533.675  18533.650  0.500  4.789421  10.5444  0.087701  0.022821
  18547.402  18547.300  0.500  4.769703  10.4862  0.088953  0.023382
  18561.119  18561.110  0.500  4.759334  10.4345  0.089437  0.023575
  18575.114  18575.100  0.500  4.760130  10.3939  0.089018  0.023456
  18589.313  18589.260  0.500  4.754417  10.3515  0.089163  0.023552
  18603.594  18603.590  0.500  4.739793  10.2898  0.089937  0.023891
  18618.125  18618.090  0.500  4.723993  10.2277  0.090819  0.024228
  18632.831  18632.760  0.500  4.709119  10.1916  0.091854  0.024669
  18647.622  18647.600  0.500  4.691997  10.1387  0.092955  0.025035
  18662.650  18662.620  0.500  4.686374  10.079  0.092929  0.025064
  18677.871  18677.800  0.500  4.679024  10.0277  0.093138  0.025253
  18693.225  18693.160  0.500  4.668286  9.985375  0.093746  0.025529
  18708.727  18708.690  0.500  4.655816  9.921916  0.094319  0.025784
  18724.424  18724.390  0.500  4.642056  9.872077  0.095146  0.026139
  18740.317  18740.260  0.500  4.624137  9.819353  0.096349  0.026566
  18756.391  18756.310  0.500  4.614030  9.750107  0.096641  0.026703
  18772.540  18772.520  0.500  4.598896  9.690731  0.097517  0.026962
  18788.949  18788.910  0.500  4.593293  9.643580  0.097588  0.027161
  18805.573  18805.470  0.500  4.582427  9.590817  0.098114  0.027359
  18822.258  18822.200  0.500  4.569510  9.539075  0.098854  0.027757
  18839.176  18839.100  0.500  4.551483  9.471930  0.099944  0.028126
  18850.554  18850.460  0.500  4.542283  9.449421  0.100627  0.028412

File: Zr-K-ZirconiumFoil.xdi
# XDI/1.0 BlueSky/1.10.0 BMM/2023-1.0-py310-tiled
# Beamline.name: BMM (06BM) -- Beamline for Materials Measurement (NIST)
# Beamline.xray_source: NSLS-II three-pole wiggler
# Beamline.collimation: paraboloid mirror, 5 nm Rh on 30 nm Pt
# Beamline.focusing: not in use
# Beamline.harmonic_rejection: flat mirror, Pt stripe, pitch = 7.0 mrad relative to beam
# Beamline.software: Bluesky 1.10.0, Ophyd 1.7.0, DataBroker 2.0.0b13, Python 3.10.8, 2023-1.0-py310-tiled
# Detector.I0: 10 cm N2
# Detector.I1: 25 cm N2
# Detector.I2: 25 cm N2
# Element.symbol: Zr
# Element.edge: K
# Element.reference: Zr
# Element.reference_material: Zr foil
# Facility.name: NSLS-II
# Facility.energy: 3.0
# Facility.current: 399.9
# Facility.mode: top-off
# Facility.GUP: 301027
# Facility.SAF: 310583
# Facility.cycle: 2023-2
# Mono.name: Si(111)
# Mono.d_spacing: 3.13519
# Mono.encoder_resolution: 0.0000050 deg/ct
# Mono.angle_offset: 16.0754 deg
# Mono.scan_mode: pseudo channel cut
# Mono.scan_type: step
# Mono.direction: forward in energy
# Sample.name: Zr foil
# Sample.prep: reference foil
# Sample.x: 109.138 mm
# Sample.y: 153.150 mm
# Sample.SDD_position: 205.000 mm
# Scan.experimenters: Bruce Ravel
# Scan.edge_energy: 17997.6
# Scan.start_time: 2023-05-28T22:18:31
# Scan.end_time: 2023-05-28T22:26:07
# Scan.transient_id: 79064
# Scan.uid: 071aacf5-2d6b-4c75-bae0-a38b751e8111
# Scan.plot_hint: ln(It/Ir)  --  ln($6/$7)
# Column.1: energy eV
# Column.2: requested_energy eV
# Column.3: measurement_time seconds
# Column.4: xmu
# Column.5: I0 nA
# Column.6: It nA
# Column.7: Ir nA
# ///////////
# standard reference foil
# -----------
# energy  requested_energy  measurement_time  xmu  I0  It  Ir
  17797.719  17797.600  0.500  0.295125  13.4752  25.1651  18.7339
  17827.585  17827.600  0.500  0.294226  13.4062  25.0423  18.6592
  17857.607  17857.600  0.500  0.293279  13.3245  24.8941  18.5664
  17887.619  17887.600  0.500  0.292884  13.2148  24.6969  18.4266
  17917.606  17917.600  0.500  0.292842  13.123  24.5295  18.3024
  17947.624  17947.600  0.500  0.295429  13.0395  24.3745  18.1398
  17969.552  17969.600  0.500  0.301979  12.9128  24.1485  17.8543
  17975.503  17975.600  0.500  0.306301  12.9529  24.222  17.8314
  17981.486  17981.600  0.500  0.312813  12.9306  24.1783  17.6837
  17987.559  17987.600  0.500  0.326588  12.9255  24.1699  17.4357
  17988.425  17988.500  0.500  0.329939  12.9096  24.1459  17.3602
  17989.348  17989.400  0.500  0.333724  12.908  24.1422  17.2919
  17990.214  17990.300  0.500  0.337571  12.9066  24.1359  17.221
  17991.179  17991.200  0.500  0.343452  12.8981  24.1234  17.1112
  17992.045  17992.100  0.500  0.349945  12.8978  24.1211  16.9988
  17992.954  17993.000  0.500  0.358123  12.898  24.1206  16.86
  17993.891  17993.900  0.500  0.369614  12.8846  24.1006  16.6536
  17994.772  17994.800  0.500  0.383655  12.8829  24.0908  16.4147
  17995.667  17995.700  0.500  0.405278  12.881  24.0961  16.0671
  17996.562  17996.600  0.500  0.435135  12.9203  24.1654  15.6393
  17997.486  17997.500  0.500  0.481113  12.9279  24.1748  14.9423
  17998.381  17998.400  0.500  0.542208  12.9352  24.195  14.0685
  17999.248  17999.300  0.500  0.614493  12.9176  24.1673  13.0724
  18000.186  18000.200  0.500  0.692623  12.9153  24.1557  12.0842
  18001.053  18001.100  0.500  0.749958  12.9106  24.1568  11.4114
  18002.005  18002.000  0.500  0.791622  12.9131  24.1591  10.9467
  18002.887  18002.900  0.500  0.814483  12.9032  24.1411  10.6913
  18003.768  18003.800  0.500  0.835424  12.9121  24.1539  10.4753
  18004.692  18004.700  0.500  0.865896  12.8899  24.1163  10.1451
  18005.588  18005.600  0.500  0.906659  12.8953  24.1272  9.744270
  18006.499  18006.500  0.500  0.962045  12.8946  24.1271  9.219215
  18007.395  18007.400  0.500  1.026360  12.8825  24.1008  8.635529
  18008.305  18008.300  0.500  1.101964  12.8749  24.0936  8.004319
  18009.201  18009.200  0.500  1.181383  12.885  24.1139  7.399451
  18010.098  18010.100  0.500  1.261575  12.8768  24.097  6.824448
  18011.023  18011.000  0.500  1.339624  12.8634  24.0782  6.307149
  18011.891  18011.900  0.500  1.401984  12.8664  24.0809  5.926500
  18012.844  18012.800  0.500  1.451184  12.8596  24.0665  5.638604
  18013.684  18013.700  0.500  1.478627  12.8619  24.0723  5.487294
  18014.624  18014.600  0.500  1.488732  12.8583  24.0649  5.430446
  18015.506  18015.500  0.500  1.483272  12.8521  24.0537  5.457643
  18016.432  18016.400  0.500  1.468512  12.8432  24.0393  5.535473
  18017.315  18017.300  0.500  1.451436  12.8361  24.022  5.626762
  18018.198  18018.200  0.500  1.437422  12.8439  24.0332  5.708839
  18019.123  18019.100  0.500  1.427641  12.8338  24.0191  5.761546
  18019.992  18020.000  0.500  1.422754  12.8316  24.0145  5.788669
  18020.918  18020.900  0.500  1.420718  12.8251  24.0021  5.797483
  18021.773  18021.800  0.500  1.420762  12.819  23.9943  5.795328
  18022.600  18022.600  0.500  1.421495  12.834  24.018  5.796820
  18025.578  18025.610  0.500  1.441489  12.8078  23.9733  5.671498
  18028.828  18028.800  0.500  1.494901  12.7958  23.9495  5.371177
  18032.180  18032.160  0.500  1.514568  12.7821  23.9297  5.262212
  18035.718  18035.680  0.500  1.465753  12.7761  23.9098  5.520864
  18039.386  18039.380  0.500  1.416418  12.7513  23.8717  5.790841
  18043.241  18043.250  0.500  1.408429  12.6933  23.7568  5.809176
  18047.284  18047.300  0.500  1.400192  12.7455  23.862  5.883174
  18051.529  18051.510  0.500  1.392845  12.7323  23.8341  5.919631
  18055.932  18055.890  0.500  1.416682  12.7238  23.8164  5.775900
  18060.482  18060.450  0.500  1.453354  12.697  23.771  5.557300
  18065.176  18065.180  0.500  1.448802  12.6839  23.7471  5.577043
  18070.103  18070.080  0.500  1.410150  12.6734  23.726  5.791674
  18075.161  18075.150  0.500  1.395656  12.652  23.6911  5.867592
  18080.393  18080.390  0.500  1.388987  12.6385  23.6603  5.899162
  18085.802  18085.810  0.500  1.391923  12.6213  23.6297  5.874255
  18091.414  18091.390  0.500  1.411015  12.5311  23.4632  5.722569
  18097.202  18097.150  0.500  1.419631  12.5868  23.5687  5.698975
  18103.095  18103.080  0.500  1.399572  12.5678  23.537  5.806630
  18109.179  18109.180  0.500  1.370336  12.5339  23.4715  5.962260
  18115.482  18115.450  0.500  1.367146  12.5214  23.4509  5.976067
  18121.891  18121.890  0.500  1.378982  12.4124  23.2442  5.853695
  18128.521  18128.500  0.500  1.388548  12.4909  23.396  5.835834
  18135.329  18135.290  0.500  1.392609  12.4479  23.3126  5.791467
  18142.286  18142.250  0.500  1.387696  12.4622  23.3442  5.827877
  18149.422  18149.370  0.500  1.366233  12.4248  23.2728  5.936100
  18156.752  18156.670  0.500  1.345292  12.46  23.3404  6.079322
  18164.175  18164.150  0.500  1.339312  12.4383  23.3019  6.105692
  18171.821  18171.790  0.500  1.345132  12.4141  23.2563  6.058403
  18179.647  18179.600  0.500  1.361013  12.3786  23.1901  5.945976
  18187.553  18187.590  0.500  1.371164  12.3515  23.1429  5.873942
  18195.800  18195.750  0.500  1.364662  12.3369  23.1148  5.905077
  18204.083  18204.070  0.500  1.348195  12.3135  23.0704  5.991572
  18212.593  18212.570  0.500  1.334972  12.2847  23.0172  6.057326
  18221.270  18221.250  0.500  1.323802  12.1826  22.8301  6.075577
  18230.087  18230.090  0.500  1.326360  12.2424  22.9429  6.090011
  18239.103  18239.100  0.500  1.341261  12.2056  22.8776  5.982844
  18248.317  18248.290  0.500  1.355589  12.1739  22.8174  5.882212
  18257.687  18257.650  0.500  1.349642  12.1486  22.7776  5.906991
  18267.184  18267.170  0.500  1.333995  12.1179  22.7176  5.984328
  18276.881  18276.870  0.500  1.324985  12.0864  22.6628  6.023924
  18286.794  18286.750  0.500  1.317661  11.8032  22.1311  5.925854
  18296.791  18296.790  0.500  1.313938  12.0221  22.5441  6.058941
  18306.991  18307.000  0.500  1.317253  11.9993  22.4982  6.026605
  18317.422  18317.390  0.500  1.325047  11.9632  22.4329  5.962462
  18328.013  18327.950  0.500  1.328758  11.938  22.3855  5.927808
  18338.691  18338.680  0.500  1.318965  11.8991  22.3173  5.967908
  18349.587  18349.580  0.500  1.308476  11.8554  22.2398  6.009902
  18360.689  18360.650  0.500  1.301468  11.8436  22.215  6.045411
  18371.878  18371.890  0.500  1.298228  11.8048  22.1453  6.046008
  18383.304  18383.310  0.500  1.300370  11.7616  22.0676  6.011903
  18394.981  18394.890  0.500  1.303154  11.7364  22.0216  5.982687
  18406.629  18406.650  0.500  1.302606  11.7006  21.9535  5.967455
  18418.604  18418.580  0.500  1.300100  11.6621  21.887  5.964322
  18430.714  18430.680  0.500  1.293161  11.6325  21.833  5.991009
  18442.960  18442.950  0.500  1.286957  11.5951  21.7595  6.008018
  18455.416  18455.390  0.500  1.283493  11.5559  21.6885  6.009180
  18468.084  18468.010  0.500  1.282843  11.5244  21.6326  5.997601
  18480.844  18480.790  0.500  1.283229  11.4112  21.4237  5.937376
  18493.757  18493.750  0.500  1.280850  11.4402  21.4783  5.966700
  18506.913  18506.880  0.500  1.278631  11.4056  21.4169  5.962844
  18520.224  18520.180  0.500  1.275015  11.355  21.3284  5.959730
  18533.705  18533.650  0.500  1.269337  11.3203  21.2585  5.974028
  18547.372  18547.300  0.500  1.265032  11.2817  21.1884  5.980018
  18561.210  18561.110  0.500  1.263128  11.2428  21.1108  5.969448
  18575.175  18575.100  0.500  1.262174  11.201  21.0416  5.955567
  18589.358  18589.260  0.500  1.259281  11.1648  20.9734  5.953461
  18603.791  18603.590  0.500  1.256201  11.1176  20.8868  5.947169
  18618.049  18618.090  0.500  1.252843  11.0738  20.8061  5.944132
  18632.740  18632.760  0.500  1.248934  11.0315  20.7289  5.945257
  18647.622  18647.600  0.500  1.244956  10.982  20.6399  5.943325
  18662.604  18662.620  0.500  1.241855  10.9423  20.5614  5.939121
  18677.810  18677.800  0.500  1.239337  10.8996  20.4851  5.931995
  18693.179  18693.160  0.500  1.236881  10.8528  20.4019  5.922420
  18708.711  18708.690  0.500  1.233564  10.8127  20.3268  5.920243
  18724.408  18724.390  0.500  1.230180  10.7621  20.2373  5.914131
  18740.286  18740.260  0.500  1.226367  10.7147  20.1469  5.910211
  18756.330  18756.310  0.500  1.222871  10.6696  20.0636  5.906396
  18772.525  18772.520  0.500  1.219274  10.6569  20.0398  5.920647
  18788.980  18788.910  0.500  1.216312  10.609  19.9555  5.913220
  18805.449  18805.470  0.500  1.213329  10.5648  19.874  5.906690
  18822.212  18822.200  0.500  1.210347  10.5153  19.7852  5.897833
  18839.129  18839.100  0.500  1.206605  10.4625  19.6817  5.888985
  18850.492  18850.460  0.500  1.204229  10.4337  19.6317  5.887992