Folder: webxdiviewer/xdidata/Data/Zr (part 2)

File: Zr-K-Zirconolite.xdi
# XDI/1.0 BlueSky/1.10.0 BMM/2023-1.0-py310-tiled
# Beamline.name: BMM (06BM) -- Beamline for Materials Measurement (NIST)
# Beamline.xray_source: NSLS-II three-pole wiggler
# Beamline.collimation: paraboloid mirror, 5 nm Rh on 30 nm Pt
# Beamline.focusing: not in use
# Beamline.harmonic_rejection: flat mirror, Pt stripe, pitch = 7.0 mrad relative to beam
# Beamline.software: Bluesky 1.10.0, Ophyd 1.7.0, DataBroker 2.0.0b13, Python 3.10.8, 2023-1.0-py310-tiled
# Detector.I0: 10 cm N2
# Detector.I1: 25 cm N2
# Detector.I2: 25 cm N2
# Element.symbol: Zr
# Element.edge: K
# Element.reference: Zr
# Element.reference_material: Zr foil
# Facility.name: NSLS-II
# Facility.energy: 3.0
# Facility.current: 400.1
# Facility.mode: top-off
# Facility.GUP: 301027
# Facility.SAF: 310583
# Facility.cycle: 2023-2
# Mono.name: Si(111)
# Mono.d_spacing: 3.13519
# Mono.encoder_resolution: 0.0000050 deg/ct
# Mono.angle_offset: 16.0754 deg
# Mono.scan_mode: pseudo channel cut
# Mono.scan_type: step
# Mono.direction: forward in energy
# Sample.name: CaZrTi2O7
# Sample.prep: powder in PEG pellet
# Sample.x: 117.785 mm
# Sample.y: 114.695 mm
# Sample.SDD_position: 205.000 mm
# Scan.experimenters: Bruce Ravel
# Scan.edge_energy: 17997.6
# Scan.start_time: 2023-06-23T19:48:31
# Scan.end_time: 2023-06-23T19:56:18
# Scan.transient_id: 84984
# Scan.uid: 4b699b96-a2f8-44ff-a3af-93b541923c15
# Scan.plot_hint: ln(I0/It)  --  ln($5/$6)
# Column.1: energy eV
# Column.2: requested_energy eV
# Column.3: measurement_time seconds
# Column.4: xmu
# Column.5: I0 nA
# Column.6: It nA
# Column.7: Ir nA
# ///////////
# sample courtesy Martin Stennett, University of Sheffield
# -----------
# energy  requested_energy  measurement_time  xmu  I0  It  Ir
  17797.622  17797.600  0.500  0.023022  13.4166  13.1113  9.872785
  17827.668  17827.600  0.500  0.019704  13.2754  13.0163  9.810519
  17857.733  17857.600  0.500  0.016846  13.1654  12.9455  9.763735
  17887.717  17887.600  0.500  0.014611  13.035  12.8459  9.696490
  17917.592  17917.600  0.500  0.012549  12.9588  12.7972  9.657566
  17947.581  17947.600  0.500  0.012155  12.8417  12.6865  9.551090
  17969.552  17969.600  0.500  0.015038  12.7026  12.513  9.357949
  17975.560  17975.600  0.500  0.016992  12.7407  12.526  9.330005
  17981.543  17981.600  0.500  0.020017  12.7027  12.451  9.213024
  17987.502  17987.600  0.500  0.025804  12.6942  12.3708  9.035634
  17988.439  17988.500  0.500  0.027011  12.6853  12.3472  8.990480
  17989.319  17989.400  0.500  0.028158  12.6844  12.3322  8.947552
  17990.199  17990.300  0.500  0.029736  12.686  12.3143  8.898367
  17991.136  17991.200  0.500  0.031405  12.6894  12.297  8.840257
  17992.045  17992.100  0.500  0.033336  12.6851  12.2692  8.768761
  17992.997  17993.000  0.500  0.035353  12.6826  12.2421  8.677418
  17993.891  17993.900  0.500  0.037616  12.6756  12.2076  8.568136
  17994.744  17994.800  0.500  0.040407  12.6683  12.1666  8.432405
  17995.695  17995.700  0.500  0.044079  12.6568  12.111  8.240386
  17996.576  17996.600  0.500  0.048128  12.6909  12.0946  8.012240
  17997.329  17997.500  0.500  0.052558  12.6952  12.0452  7.731505
  17998.253  17998.400  0.500  0.058709  12.6789  11.956  7.276257
  17999.191  17999.300  0.500  0.067698  12.6666  11.8375  6.701450
  18000.072  18000.200  0.500  0.079729  12.6762  11.7048  6.131210
  18001.039  18001.100  0.500  0.097061  12.6636  11.4922  5.596035
  18001.920  18002.000  0.500  0.120256  12.665  11.23  5.207929
  18002.830  18002.900  0.500  0.148020  12.6598  10.918  4.927053
  18003.782  18003.800  0.500  0.178963  12.662  10.5872  4.687771
  18004.636  18004.700  0.500  0.207685  12.6518  10.2791  4.444091
  18005.588  18005.600  0.500  0.234667  12.6455  10.0005  4.164784
  18006.484  18006.500  0.500  0.258114  12.64  9.764517  3.868263
  18007.338  18007.400  0.500  0.279159  12.632  9.555067  3.569160
  18008.319  18008.300  0.500  0.305074  12.6331  9.311442  3.229439
  18009.173  18009.200  0.500  0.335247  12.6263  9.029824  2.898922
  18010.098  18010.100  0.500  0.373936  12.6199  8.682727  2.573185
  18011.008  18011.000  0.500  0.422556  12.6159  8.268075  2.260824
  18011.862  18011.900  0.500  0.478548  12.6095  7.813877  1.999951
  18012.787  18012.800  0.500  0.549198  12.6131  7.282933  1.761440
  18013.684  18013.700  0.500  0.631754  12.6043  6.701194  1.559068
  18014.581  18014.600  0.500  0.724353  12.6064  6.109552  1.393561
  18015.492  18015.500  0.500  0.830396  12.5998  5.491938  1.249258
  18016.361  18016.400  0.500  0.935098  12.5934  4.943488  1.135195
  18017.272  18017.300  0.500  1.032062  12.5961  4.487642  1.047316
  18018.198  18018.200  0.500  1.114660  12.5831  4.127601  0.980951
  18019.081  18019.100  0.500  1.165207  12.5779  3.922521  0.943880
  18019.978  18020.000  0.500  1.194085  12.5709  3.808750  0.922835
  18020.876  18020.900  0.500  1.207390  12.5781  3.760571  0.913808
  18021.773  18021.800  0.500  1.212923  12.5719  3.737956  0.909676
  18022.585  18022.600  0.500  1.215645  12.5679  3.726621  0.906382
  18025.649  18025.610  0.500  1.208928  12.5506  3.746579  0.896525
  18028.857  18028.800  0.500  1.164033  12.5405  3.915455  0.888301
  18032.208  18032.160  0.500  1.099651  12.5277  4.171565  0.922975
  18035.704  18035.680  0.500  1.020635  12.5158  4.510257  1.044623
  18039.386  18039.380  0.500  0.965304  12.4926  4.758017  1.161686
  18043.256  18043.250  0.500  0.927436  12.4237  4.914412  1.211856
  18047.298  18047.300  0.500  0.890290  12.4595  5.115063  1.270421
  18051.486  18051.510  0.500  0.851410  12.4511  5.314285  1.330949
  18055.918  18055.890  0.500  0.836452  12.432  5.386118  1.321016
  18060.510  18060.450  0.500  0.847149  12.4139  5.321041  1.256672
  18065.191  18065.180  0.500  0.886155  12.3956  5.109933  1.207332
  18070.103  18070.080  0.500  0.929915  12.3738  4.882526  1.199185
  18075.146  18075.150  0.500  0.955939  12.3566  4.750508  1.185689
  18080.408  18080.390  0.500  0.976542  12.3301  4.643651  1.165807
  18085.845  18085.810  0.500  0.976929  12.2991  4.630179  1.161593
  18091.414  18091.390  0.500  0.957556  12.2176  4.689483  1.153790
  18097.174  18097.150  0.500  0.934819  12.2716  4.818533  1.173615
  18103.081  18103.080  0.500  0.917348  12.2413  4.891361  1.214566
  18109.164  18109.180  0.500  0.902675  12.1841  4.940451  1.264006
  18115.497  18115.450  0.500  0.892949  12.186  4.989521  1.282026
  18121.935  18121.890  0.500  0.887552  12.0673  4.967664  1.262180
  18128.492  18128.500  0.500  0.877234  12.1538  5.055157  1.271909
  18135.300  18135.290  0.500  0.871647  12.0997  5.060829  1.268042
  18142.272  18142.250  0.500  0.880780  12.084  5.008336  1.259982
  18149.379  18149.370  0.500  0.892655  12.0864  4.950180  1.271174
  18156.680  18156.670  0.500  0.898990  12.0706  4.912513  1.289567
  18164.160  18164.150  0.500  0.895839  12.0366  4.914136  1.297884
  18171.763  18171.790  0.500  0.889422  12.0031  4.931983  1.295787
  18179.604  18179.600  0.500  0.879914  11.9791  4.969172  1.284574
  18187.582  18187.590  0.500  0.873701  11.9429  4.985024  1.275614
  18195.756  18195.750  0.500  0.866801  11.9144  5.007549  1.288233
  18204.127  18204.070  0.500  0.865564  11.8819  5.000062  1.308269
  18212.578  18212.570  0.500  0.865427  11.8246  4.976625  1.319087
  18221.270  18221.250  0.500  0.860796  11.7433  4.965373  1.331479
  18230.116  18230.090  0.500  0.860439  11.7644  4.976042  1.331785
  18239.132  18239.100  0.500  0.857158  11.7397  4.981927  1.313529
  18248.317  18248.290  0.500  0.854898  11.7043  4.978144  1.294212
  18257.643  18257.650  0.500  0.854723  11.6599  4.960149  1.295571
  18267.198  18267.170  0.500  0.854550  11.6265  4.946776  1.312799
  18276.881  18276.870  0.500  0.855397  11.5874  4.925962  1.319095
  18286.779  18286.750  0.500  0.854705  11.2851  4.800763  1.295087
  18296.791  18296.790  0.500  0.848556  11.5126  4.927753  1.335403
  18307.064  18307.000  0.500  0.842550  11.4711  4.939590  1.334261
  18317.408  18317.390  0.500  0.838733  11.4224  4.937410  1.322968
  18327.999  18327.950  0.500  0.834460  11.3873  4.943314  1.318966
  18338.720  18338.680  0.500  0.831609  11.3526  4.942348  1.331952
  18349.617  18349.580  0.500  0.831000  11.2773  4.912531  1.337865
  18360.674  18360.650  0.500  0.829148  11.2624  4.915163  1.348276
  18371.938  18371.890  0.500  0.824641  11.2267  4.921705  1.353828
  18383.319  18383.310  0.500  0.822025  11.1712  4.910216  1.348166
  18394.966  18394.890  0.500  0.820686  11.1356  4.901110  1.341623
  18406.644  18406.650  0.500  0.817279  11.1045  4.904112  1.342746
  18418.619  18418.580  0.500  0.815538  11.055  4.890749  1.343686
  18430.685  18430.680  0.500  0.813422  11.0046  4.878753  1.348701
  18443.020  18442.950  0.500  0.810396  10.9576  4.872628  1.355738
  18455.431  18455.390  0.500  0.807285  10.9203  4.871207  1.360679
  18468.039  18468.010  0.500  0.802748  10.8535  4.863396  1.358754
  18480.829  18480.790  0.500  0.799182  10.7691  4.842814  1.352839
  18493.772  18493.750  0.500  0.796604  10.7811  4.860719  1.360631
  18506.898  18506.880  0.500  0.793999  10.7425  4.855969  1.362066
  18520.239  18520.180  0.500  0.790952  10.6907  4.847294  1.364532
  18533.660  18533.650  0.500  0.789084  10.6373  4.832112  1.368860
  18547.372  18547.300  0.500  0.786419  10.5957  4.826068  1.372573
  18561.119  18561.110  0.500  0.782064  10.5374  4.820464  1.373251
  18575.130  18575.100  0.500  0.778721  10.5005  4.819632  1.375319
  18589.298  18589.260  0.500  0.775301  10.4431  4.809709  1.375375
  18603.670  18603.590  0.500  0.772204  10.4001  4.804756  1.378306
  18618.094  18618.090  0.500  0.769177  10.3439  4.793320  1.380435
  18632.816  18632.760  0.500  0.765958  10.296  4.786511  1.383791
  18647.668  18647.600  0.500  0.762599  10.2452  4.778899  1.386742
  18662.666  18662.620  0.500  0.758526  10.1866  4.770951  1.388621
  18677.856  18677.800  0.500  0.754868  10.139  4.766075  1.390549
  18693.240  18693.160  0.500  0.751691  10.0933  4.759658  1.392021
  18708.758  18708.690  0.500  0.748639  10.0308  4.744673  1.392810
  18724.393  18724.390  0.500  0.745621  9.967288  4.728877  1.392648
  18740.286  18740.260  0.500  0.742019  9.931882  4.729083  1.397383
  18756.360  18756.310  0.500  0.738361  9.872209  4.717896  1.399426
  18772.525  18772.520  0.500  0.734340  9.810796  4.707438  1.400398
  18788.965  18788.910  0.500  0.730554  9.754931  4.698386  1.402246
  18805.542  18805.470  0.500  0.727368  9.703768  4.688657  1.404123
  18822.305  18822.200  0.500  0.723827  9.649118  4.678791  1.405454
  18839.129  18839.100  0.500  0.720057  9.594965  4.670104  1.407923
  18850.570  18850.460  0.500  0.717365  9.558983  4.665134  1.408601